// General information: 
//  MT Manager version: 2022.2.0 
//  XDA version: 2022.2.0 build 7381 rev 124627 built on 2023-07-19
// Device information: 
//  DeviceId: 00B4BCF6
//  ProductCode: MTW2-3A7G6
//  Firmware Version: 4.6.0
//  Hardware Version: 2.0.0
// Device settings: 
//  Filter Profile: human(46.1)
//  Option Flags: Orientation Smoother Disabled, Position/Velocity Smoother Disabled, Continuous Zero Rotation Update Disabled, AHS Disabled, ICC Disabled
// Coordinate system: ENU
PacketCounter	SampleTimeFine	Acc_X	Acc_Y	Acc_Z	Gyr_X	Gyr_Y	Gyr_Z	Mag_X	Mag_Y	Mag_Z	Roll	Pitch	Yaw
55630		-1.800625	-9.468858	1.823573	0.001992	0.004634	-0.007396	0.545410	0.053467	0.450684	-79.042910	10.561389	-16.385703
55631		-1.805151	-9.491123	1.814620	-0.001061	0.004710	-0.006750	0.543457	0.057617	0.437988	-79.043183	10.560445	-16.386120
55632		-1.807965	-9.458893	1.803029	0.001825	0.003113	-0.007687	0.548828	0.048096	0.449463	-79.041962	10.558759	-16.385713
55633		-1.815923	-9.445914	1.842313	0.000186	0.005006	-0.008540	0.541260	0.052490	0.447021	-79.041587	10.556834	-16.386363
55634		-1.803226	-9.491498	1.814574	0.000577	0.002817	-0.005898	0.549072	0.043213	0.439941	-79.041013	10.556123	-16.385589
55635		-1.806140	-9.459248	1.802992	0.000632	0.006193	-0.006782	0.545166	0.057129	0.440430	-79.040498	10.555347	-16.386687
55636		-1.819422	-9.468376	1.833376	0.002437	0.005822	-0.005638	0.545410	0.059082	0.444092	-79.039168	10.555109	-16.387603
55637		-1.800176	-9.437255	1.811950	-0.000670	0.002521	-0.004108	0.540039	0.056885	0.452148	-79.038922	10.555378	-16.386396
55638		-1.801334	-9.491872	1.814499	0.000353	0.006526	-0.008248	0.551270	0.049805	0.441406	-79.038913	10.553748	-16.388004
55639		-1.809447	-9.481771	1.793913	-0.000171	0.007086	-0.003235	0.542969	0.051514	0.442383	-79.038873	10.555036	-16.389368
55640		-1.831266	-9.480700	1.803820	0.003239	0.004929	-0.009185	0.537354	0.058105	0.446045	-79.037063	10.552706	-16.390167
55641		-1.808223	-9.481952	1.794189	0.003351	0.003075	-0.008009	0.542480	0.048340	0.441895	-79.034689	10.550866	-16.389843
55642		-1.816223	-9.468927	1.833702	0.003517	0.004596	-0.007718	0.543213	0.055908	0.446533	-79.032654	10.549324	-16.390288
55643		-1.824138	-9.458801	1.813470	0.003683	0.006117	-0.007427	0.542969	0.044922	0.443604	-79.030414	10.548164	-16.391536
55644		-1.815041	-9.469061	1.834178	0.003849	0.007638	-0.007136	0.547363	0.057373	0.447510	-79.028496	10.547282	-16.393657
55645		-1.814438	-9.469144	1.834349	0.001825	0.003112	-0.007687	0.548828	0.055176	0.443604	-79.027020	10.545658	-16.393182
55646		-1.805239	-9.482322	1.795239	0.002548	0.003967	-0.004462	0.545166	0.054688	0.445557	-79.025408	10.545879	-16.392907
55647		-1.813422	-9.469302	1.834534	0.000352	0.006525	-0.008249	0.547119	0.058350	0.444092	-79.025135	10.544289	-16.394424
55648		-1.785415	-9.448397	1.833659	0.003683	0.006117	-0.007426	0.550537	0.055664	0.439697	-79.023159	10.543078	-16.395708
55649		-1.820767	-9.459306	1.814223	0.000630	0.006191	-0.006782	0.539551	0.053955	0.441162	-79.022653	10.542266	-16.396778
55650		-1.806631	-9.447425	1.843700	0.003848	0.007638	-0.007135	0.547607	0.059814	0.447754	-79.020735	10.541385	-16.398900
55651		-1.810886	-9.472597	1.775208	0.001712	0.004965	-0.008862	0.555908	0.053467	0.446045	-79.019534	10.539273	-16.399714
55652		-1.796658	-9.460733	1.804677	0.002322	0.007675	-0.006813	0.544922	0.054688	0.442383	-79.018488	10.538577	-16.401821
55653		-1.809826	-9.469896	1.835019	0.000186	0.005002	-0.008540	0.543457	0.056396	0.443848	-79.018180	10.536674	-16.402392
55654		-1.786796	-9.471165	1.825193	0.001660	0.001589	-0.007977	0.542480	0.050049	0.444336	-79.016900	10.534659	-16.401146
55655		-1.808487	-9.470134	1.835113	0.000577	0.002815	-0.005898	0.552246	0.058350	0.445068	-79.016100	10.534007	-16.400363
55656		-1.797615	-9.428836	1.793257	0.001990	0.004632	-0.007395	0.551758	0.055420	0.437744	-79.014937	10.532652	-16.400794
55657		-1.812385	-9.492499	1.826290	0.000464	0.004669	-0.007073	0.540771	0.056152	0.441162	-79.014400	10.531521	-16.400925
55658		-1.801686	-9.448297	1.844069	0.000464	0.004669	-0.007073	0.540039	0.051514	0.438232	-79.014109	10.530351	-16.401340
55659		-1.797658	-9.480755	1.855598	0.000629	0.006190	-0.006782	0.541504	0.053223	0.439453	-79.013657	10.529571	-16.402548
55660		-1.795267	-9.429293	1.793207	0.001876	0.006486	-0.008570	0.545654	0.056152	0.437988	-79.012777	10.527757	-16.404169
55661		-1.804870	-9.470824	1.835111	0.000185	0.005001	-0.008540	0.539063	0.046387	0.442871	-79.012488	10.525855	-16.404781
55662		-1.812732	-9.460762	1.814678	0.003732	0.009492	-0.008310	0.549561	0.051514	0.438721	-79.010853	10.524515	-16.408094
55663		-1.817053	-9.483025	1.805973	0.003073	0.003406	-0.009474	0.547119	0.054443	0.441406	-79.008796	10.521957	-16.407858
55664		-1.816408	-9.483120	1.806122	0.002484	0.009196	-0.006522	0.550537	0.059082	0.446533	-79.007809	10.521591	-16.410803
55665		-1.805739	-9.438877	1.824077	0.003402	0.006449	-0.008892	0.546631	0.058105	0.442383	-79.005840	10.519641	-16.412340
55666		-1.801561	-9.471336	1.835719	0.000349	0.006522	-0.008249	0.544434	0.061035	0.442383	-79.005832	10.518011	-16.413947
55667		-1.809467	-9.461313	1.815065	-0.001013	0.008079	-0.007637	0.541992	0.056641	0.438721	-79.006530	10.516927	-16.416372
55668		-1.808860	-9.461448	1.814968	0.002040	0.008007	-0.008279	0.541992	0.049072	0.437256	-79.005708	10.515443	-16.418831
55669		-1.799792	-9.471719	1.835481	0.000742	0.004335	-0.005606	0.546631	0.053711	0.445313	-79.005008	10.515145	-16.418739
55670		-1.807648	-9.461672	1.815004	0.001433	0.005296	-0.010328	0.543945	0.058594	0.444336	-79.004293	10.512213	-16.419875
55671		-1.806822	-9.461832	1.814993	0.000020	0.003478	-0.008831	0.541260	0.057129	0.453857	-79.003975	10.509985	-16.419839
55672		-1.792851	-9.449916	1.844383	0.001626	0.006714	-0.002091	0.539551	0.058838	0.447021	-79.003130	10.511840	-16.420871
55673		-1.797616	-9.472158	1.835347	-0.002476	0.002886	-0.005255	0.546631	0.060791	0.449707	-79.004114	10.511545	-16.420471
55674		-1.783477	-9.463200	1.804814	-0.000343	0.005561	-0.003527	0.551270	0.057617	0.447998	-79.004307	10.512466	-16.421003
55675		-1.819260	-9.471264	1.844756	-0.002476	0.002886	-0.005255	0.543213	0.047363	0.444092	-79.005282	10.512166	-16.420286
55676		-1.796576	-9.472503	1.834585	-0.003724	0.002590	-0.003467	0.534912	0.056152	0.449707	-79.007100	10.512796	-16.419112
55677		-1.782384	-9.463575	1.803927	-0.002640	0.001364	-0.005546	0.546143	0.053223	0.444336	-79.008062	10.512222	-16.417665
55678		-1.804343	-9.462609	1.813411	-0.003560	0.004111	-0.003176	0.546875	0.057617	0.435303	-79.009939	10.513182	-16.417329
55679		-1.817433	-9.474747	1.783715	-0.001391	0.001661	-0.007334	0.549561	0.050049	0.442383	-79.010227	10.511610	-16.415817
55680		-1.812254	-9.449776	1.852139	-0.001870	0.005597	-0.003206	0.543945	0.055176	0.446777	-79.011291	10.512716	-16.416334
55681		-1.822008	-9.494203	1.834115	-0.000671	0.002518	-0.004109	0.543945	0.059082	0.446289	-79.011216	10.513076	-16.415083
55682		-1.772049	-9.474319	1.823196	-0.002034	0.004075	-0.003497	0.546875	0.054199	0.447998	-79.012221	10.513852	-16.414762
55683		-1.824865	-9.462080	1.822070	-0.002476	0.002886	-0.005255	0.551270	0.061279	0.444336	-79.013230	10.513575	-16.414060
55684		-1.793605	-9.473479	1.832451	-0.002312	0.004407	-0.004964	0.541748	0.052490	0.441162	-79.014459	10.513562	-16.414092
55685		-1.796617	-9.441282	1.820637	-0.001228	0.003182	-0.007043	0.546631	0.052979	0.452881	-79.014817	10.512315	-16.413563
55686		-1.814983	-9.472642	1.841888	-0.000508	0.004039	-0.003818	0.549072	0.054199	0.445068	-79.014951	10.512906	-16.413257
55687		-1.783542	-9.486923	1.792619	-0.002149	0.005928	-0.004673	0.542725	0.063232	0.444336	-79.016101	10.513320	-16.414165
55688		-1.791930	-9.473961	1.831600	-0.000901	0.006225	-0.006460	0.539795	0.048096	0.442627	-79.016741	10.512664	-16.415403
55689		-1.799996	-9.463880	1.811095	0.002382	0.002447	-0.004750	0.547607	0.054932	0.451660	-79.014928	10.512633	-16.414375
55690		-1.799567	-9.463945	1.811182	0.000740	0.004336	-0.005605	0.548340	0.053955	0.453125	-79.014414	10.512252	-16.414437
55691		-1.781784	-9.487287	1.792440	0.000740	0.004335	-0.005605	0.547607	0.050781	0.444580	-79.013775	10.511959	-16.414673
55692		-1.812230	-9.476116	1.781736	0.001067	0.007378	-0.005022	0.536865	0.059814	0.448975	-79.013379	10.512238	-16.416411
55693		-1.789697	-9.474364	1.831696	0.001826	0.003111	-0.007684	0.538086	0.058350	0.445313	-79.012037	10.510634	-16.416162
55694		-1.811603	-9.473366	1.841493	-0.000182	0.007081	-0.003235	0.541504	0.053223	0.446533	-79.012290	10.511885	-16.417532
55695		-1.806357	-9.451288	1.850185	-0.002150	0.005927	-0.004673	0.537598	0.055664	0.447021	-79.013459	10.512278	-16.418605
55696		-1.788553	-9.474641	1.831381	0.001941	0.001257	-0.006508	0.548340	0.053711	0.446289	-79.011954	10.511053	-16.417007
55697		-1.782962	-9.452557	1.840435	0.001989	0.004632	-0.007392	0.548096	0.053467	0.444092	-79.010677	10.509786	-16.417533
55698		-1.827055	-9.450508	1.860076	0.000625	0.006188	-0.006780	0.551025	0.053955	0.443115	-79.010446	10.508946	-16.418786
55699		-1.781903	-9.452757	1.840433	0.000740	0.004335	-0.005605	0.547607	0.053223	0.441895	-79.009810	10.508668	-16.418582
55700		-1.808686	-9.473948	1.841366	0.001989	0.004632	-0.007392	0.549072	0.057861	0.445068	-79.008648	10.507314	-16.419013
55701		-1.794308	-9.464975	1.811013	-0.000902	0.006223	-0.006460	0.557129	0.060791	0.446045	-79.009160	10.506745	-16.420065
55702		-1.788882	-9.442907	1.819826	0.000902	0.005856	-0.005314	0.546631	0.058594	0.445557	-79.008706	10.506693	-16.420965
55703		-1.784843	-9.475327	1.831452	0.001989	0.004632	-0.007392	0.544922	0.060303	0.456787	-79.007400	10.505395	-16.421268
55704		-1.828668	-9.476206	1.791365	0.000902	0.005856	-0.005314	0.542725	0.053223	0.442871	-79.006946	10.505344	-16.422168
55705		-1.765084	-9.444209	1.810244	0.003793	0.004265	-0.006245	0.546875	0.059326	0.446289	-79.004580	10.504672	-16.422517
55706		-1.805654	-9.474477	1.841620	0.001988	0.004631	-0.007392	0.548828	0.054443	0.439209	-79.003418	10.503318	-16.422948
55707		-1.818545	-9.486592	1.812292	0.002151	0.006153	-0.007100	0.539063	0.055176	0.445313	-79.002197	10.502375	-16.424039
55708		-1.804476	-9.474636	1.841956	0.005204	0.006083	-0.007740	0.550049	0.056885	0.447998	-78.999351	10.500983	-16.425339
55709		-1.798541	-9.455483	1.791289	0.000508	0.008040	-0.007956	0.534424	0.053223	0.440674	-78.999303	10.499773	-16.427866
55710		-1.789336	-9.465728	1.811998	0.006452	0.006380	-0.009526	0.544922	0.054688	0.439209	-78.995809	10.497409	-16.429534
55711		-1.802469	-9.474886	1.842638	0.003723	0.009492	-0.008305	0.540283	0.054688	0.442627	-78.994090	10.496177	-16.432779
55712		-1.792840	-9.488070	1.803672	0.004648	0.006745	-0.010673	0.541260	0.054688	0.447998	-78.991691	10.493209	-16.434784
55713		-1.800549	-9.478013	1.783489	0.005087	0.007935	-0.008915	0.537842	0.050537	0.442139	-78.989049	10.491458	-16.437402
55714		-1.794748	-9.455921	1.792784	0.006058	0.008563	-0.012169	0.553955	0.060791	0.450928	-78.986061	10.487848	-16.440613
55715		-1.781727	-9.498476	1.825381	0.007908	0.011571	-0.011906	0.550049	0.055176	0.448975	-78.982245	10.484811	-16.445523
55716		-1.784251	-9.466263	1.814217	0.005825	0.012267	-0.014520	0.552246	0.044678	0.442383	-78.979824	10.480285	-16.451116
55717		-1.818909	-9.477399	1.794989	0.007468	0.010380	-0.013663	0.545410	0.066895	0.438965	-78.976200	10.476182	-16.455193
55718		-1.804385	-9.465409	1.825174	0.012325	0.009947	-0.013154	0.543945	0.052979	0.432129	-78.969784	10.472171	-16.459306
55719		-1.777386	-9.498849	1.827668	0.005985	0.013787	-0.014230	0.543457	0.053223	0.441650	-78.967323	10.468038	-16.465440
55720		-1.810594	-9.455474	1.805922	0.011769	0.010608	-0.016087	0.539063	0.061523	0.443359	-78.961353	10.462450	-16.470258
55721		-1.783393	-9.488923	1.808546	0.008876	0.012197	-0.015158	0.539551	0.062012	0.447510	-78.957124	10.457645	-16.475944
55722		-1.775857	-9.412346	1.815341	0.008598	0.012526	-0.016625	0.538086	0.060791	0.443115	-78.953180	10.451966	-16.481920
55723		-1.784901	-9.453873	1.857784	0.007509	0.013751	-0.014549	0.547607	0.059326	0.443604	-78.949878	10.447645	-16.488668
55724		-1.788804	-9.476155	1.849412	0.007860	0.008195	-0.011019	0.544189	0.061279	0.451172	-78.945794	10.444643	-16.491542
55725		-1.773921	-9.467181	1.819549	0.004091	0.007401	-0.013607	0.538818	0.060791	0.446533	-78.943777	10.440175	-16.494339
55726		-1.790461	-9.444066	1.838531	0.005040	0.004559	-0.008029	0.539795	0.054199	0.446533	-78.940871	10.438455	-16.494801
55727		-1.767250	-9.445217	1.828951	0.001197	0.008989	-0.012680	0.542480	0.064941	0.444824	-78.940678	10.434702	-16.498507
55728		-1.790122	-9.498832	1.841528	0.003833	0.007636	-0.007129	0.541992	0.055420	0.436279	-78.938765	10.433826	-16.500627
55729		-1.793268	-9.466578	1.830062	0.002583	0.007339	-0.005343	0.545898	0.062500	0.440918	-78.937440	10.434001	-16.502302
55730		-1.765601	-9.445437	1.829405	0.003950	0.005784	-0.005952	0.543701	0.056152	0.441895	-78.935244	10.433583	-16.503232
55731		-1.761397	-9.477822	1.841217	0.001709	0.004955	-0.008859	0.542480	0.057617	0.445557	-78.934253	10.431529	-16.503882
55732		-1.788007	-9.499124	1.842076	0.000619	0.006180	-0.006783	0.539063	0.054443	0.445801	-78.934022	10.430688	-16.505131
55733		-1.791013	-9.466919	1.830506	0.003555	0.007965	-0.008596	0.544434	0.053711	0.449707	-78.932306	10.429130	-16.507685
55734		-1.777107	-9.454899	1.860034	0.000896	0.005850	-0.005316	0.544922	0.059570	0.454102	-78.931853	10.429078	-16.508581
55735		-1.798599	-9.456959	1.810126	0.002541	0.003966	-0.004457	0.549316	0.052979	0.443359	-78.930223	10.429407	-16.508482
55736		-1.781027	-9.477230	1.851411	0.003077	0.003400	-0.009467	0.543457	0.052490	0.445068	-78.928351	10.426751	-16.508443
55737		-1.780396	-9.477314	1.851589	0.002423	0.005817	-0.005634	0.537598	0.045898	0.440186	-78.927012	10.426651	-16.509145
55738		-1.783502	-9.445072	1.840126	0.003672	0.006113	-0.007419	0.538818	0.057373	0.447998	-78.925038	10.425446	-16.510427
55739		-1.774384	-9.455250	1.860848	0.001827	0.003103	-0.007682	0.537109	0.059570	0.450928	-78.923811	10.423895	-16.510034
55740		-1.800493	-9.479572	1.802069	0.002145	0.006146	-0.007101	0.543945	0.056396	0.446533	-78.922709	10.422872	-16.511300
55741		-1.786627	-9.467545	1.831554	0.000736	0.004328	-0.005606	0.542969	0.049072	0.450195	-78.922174	10.422579	-16.511575
55742		-1.772900	-9.455512	1.860933	-0.000513	0.004031	-0.003821	0.544434	0.057617	0.448975	-78.922310	10.423167	-16.511264
55743		-1.781103	-9.445489	1.840305	0.001213	0.008893	-0.004735	0.550293	0.052490	0.449463	-78.921975	10.423903	-16.513891
55744		-1.781898	-9.500076	1.843088	0.001986	0.004624	-0.007391	0.538086	0.057617	0.444580	-78.920813	10.422549	-16.514319
55745		-1.784987	-9.467867	1.831487	0.000736	0.004328	-0.005606	0.546875	0.059814	0.449951	-78.920287	10.422279	-16.514357
55746		-1.779674	-9.445745	1.840377	0.000736	0.004328	-0.005606	0.545654	0.062256	0.442383	-78.919774	10.421897	-16.514416
55747		-1.779185	-9.445842	1.840348	0.000618	0.006178	-0.006783	0.538574	0.051758	0.447021	-78.919507	10.421129	-16.515663
55748		-1.783465	-9.468189	1.831310	-0.001186	0.006540	-0.007933	0.536865	0.057129	0.447021	-78.920372	10.419681	-16.517247
55749		-1.796263	-9.480436	1.801744	0.000736	0.004328	-0.005606	0.548096	0.061035	0.450928	-78.919859	10.419412	-16.517468
55750		-1.760048	-9.469420	1.821372	-0.001068	0.004689	-0.006756	0.548096	0.057129	0.448486	-78.920441	10.418423	-16.517862
55751		-1.781999	-9.468535	1.830943	-0.000514	0.004031	-0.003821	0.542725	0.060791	0.447266	-78.920563	10.419100	-16.517575
55752		-1.795468	-9.477740	1.861063	-0.001068	0.004689	-0.006756	0.544922	0.054932	0.451172	-78.921144	10.418110	-16.517969
55753		-1.789590	-9.458693	1.809998	-0.002318	0.004392	-0.004971	0.549561	0.062988	0.443359	-78.922369	10.418187	-16.518106
55754		-1.802993	-9.467916	1.840101	0.000459	0.004657	-0.007073	0.545654	0.059570	0.447021	-78.922079	10.417015	-16.518517
55755		-1.771713	-9.479072	1.850919	0.001171	0.005520	-0.003848	0.540527	0.058105	0.440674	-78.921381	10.417829	-16.518971
55756		-1.784869	-9.491233	1.821451	-0.000119	0.001851	-0.001177	0.546875	0.060791	0.444336	-78.921013	10.419664	-16.517118
55757		-1.774893	-9.446887	1.839132	-0.000910	0.006210	-0.006466	0.542969	0.057617	0.442383	-78.921642	10.419093	-16.518251
55758		-1.757461	-9.467192	1.879997	-0.002476	0.002870	-0.005262	0.539551	0.055908	0.441895	-78.922812	10.418743	-16.517438
55759		-1.796434	-9.446148	1.848404	-0.000514	0.004030	-0.003821	0.546875	0.059326	0.448975	-78.922947	10.419435	-16.517043
55760		-1.770032	-9.479497	1.850349	0.002263	0.004295	-0.005923	0.539307	0.052490	0.444092	-78.921563	10.418871	-16.517119
55761		-1.808890	-9.458439	1.818954	-0.000949	0.002838	-0.005579	0.543701	0.055908	0.448730	-78.921870	10.418451	-16.516332
55762		-1.782389	-9.491806	1.820891	0.002262	0.004295	-0.005923	0.538086	0.056885	0.447998	-78.920485	10.417887	-16.516408
55763		-1.777153	-9.469653	1.829875	0.001012	0.003998	-0.004138	0.545410	0.056641	0.449219	-78.919768	10.418401	-16.516282
55764		-1.771803	-9.447540	1.838753	0.000182	0.004985	-0.008540	0.540771	0.056152	0.440186	-78.919700	10.416441	-16.517045
55765		-1.798593	-9.468887	1.839409	-0.001765	0.003733	-0.002037	0.538574	0.060059	0.441650	-78.920498	10.418109	-16.516305
55766		-1.753496	-9.470933	1.819820	0.000655	0.009550	-0.007669	0.541504	0.052490	0.437500	-78.920613	10.417142	-16.519580
55767		-1.806337	-9.458984	1.818660	0.001131	0.002148	-0.002961	0.537598	0.065186	0.444092	-78.919605	10.418114	-16.517934
55768		-1.752811	-9.471087	1.819683	-0.002161	0.005912	-0.004681	0.533936	0.055176	0.446777	-78.920897	10.418425	-16.518795
55769		-1.805605	-9.459195	1.818290	-0.001068	0.004688	-0.006756	0.547607	0.052734	0.449463	-78.921490	10.417504	-16.519519
55770		-1.787500	-9.482487	1.799664	0.002105	0.002774	-0.006213	0.538818	0.059570	0.447510	-78.920045	10.416609	-16.518757
55771		-1.768913	-9.448210	1.838094	0.000893	0.005848	-0.005315	0.539795	0.053711	0.448486	-78.919630	10.416673	-16.519738
55772		-1.773217	-9.470520	1.829206	0.002024	0.007996	-0.008276	0.540771	0.054932	0.439209	-78.918813	10.415193	-16.522193
55773		-1.795056	-9.469652	1.838927	0.000735	0.004327	-0.005605	0.542236	0.052979	0.445557	-78.918342	10.414938	-16.522198
55774		-1.749731	-9.471694	1.819483	0.000339	0.006506	-0.008250	0.545166	0.057617	0.441162	-78.918336	10.413309	-16.523798
55775		-1.788534	-9.450689	1.788010	0.000892	0.005848	-0.005315	0.546387	0.052246	0.443848	-78.917921	10.413378	-16.524513
55776		-1.784938	-9.480039	1.859482	0.003393	0.006443	-0.008882	0.547852	0.051514	0.438965	-78.916171	10.411386	-16.526148
55777		-1.783744	-9.483132	1.799993	0.004103	0.007307	-0.005657	0.542480	0.066162	0.442627	-78.914089	10.411461	-16.527436
55778		-1.800880	-9.460000	1.818787	0.002262	0.004295	-0.005922	0.542725	0.059570	0.443604	-78.912705	10.410897	-16.527511
55779		-1.769570	-9.471116	1.829650	-0.000792	0.004357	-0.005289	0.537598	0.054199	0.442627	-78.913075	10.410748	-16.527610
55780		-1.791441	-9.470253	1.839356	0.003706	0.009485	-0.008301	0.534668	0.057129	0.447266	-78.911448	10.409419	-16.530919
55781		-1.790534	-9.470408	1.839441	0.000723	0.004416	-0.013549	0.542236	0.058350	0.452148	-78.911174	10.404691	-16.532138
55782		-1.780613	-9.483668	1.800270	0.000891	0.005847	-0.005315	0.553223	0.052490	0.447266	-78.910723	10.404640	-16.533033
55783		-1.784521	-9.448443	1.848214	-0.000756	0.007728	-0.006176	0.543945	0.057129	0.448486	-78.911494	10.404442	-16.535050
55784		-1.766424	-9.471719	1.829567	0.002142	0.006145	-0.007098	0.552979	0.057373	0.443115	-78.910394	10.403421	-16.536314
55785		-1.796712	-9.460807	1.818712	0.000458	0.004654	-0.007073	0.540283	0.050293	0.447021	-78.910153	10.402364	-16.536507
55786		-1.769922	-9.494191	1.820621	-0.000094	0.005311	-0.010008	0.543457	0.059570	0.446289	-78.910306	10.399615	-16.537621
55787		-1.795210	-9.461123	1.818551	0.000182	0.004982	-0.008540	0.543945	0.060791	0.439697	-78.910314	10.397782	-16.538426
55788		-1.755164	-9.482342	1.849936	0.000182	0.004982	-0.008540	0.543213	0.061768	0.445068	-78.910246	10.395823	-16.539188
55789		-1.793776	-9.461423	1.818407	0.000181	0.004982	-0.008540	0.547119	0.062500	0.446533	-78.910211	10.393930	-16.539884
55790		-1.771450	-9.459437	1.868454	0.002297	0.007666	-0.006807	0.546875	0.058838	0.443848	-78.909172	10.393240	-16.541986
55791		-1.779228	-9.449493	1.847945	0.001432	0.005280	-0.010323	0.545410	0.059814	0.449707	-78.908495	10.390391	-16.543022
55792		-1.769253	-9.462769	1.808685	-0.001466	0.006862	-0.009402	0.538330	0.058594	0.448242	-78.909582	10.388154	-16.544955
55793		-1.769275	-9.459903	1.868156	-0.001035	0.008055	-0.007643	0.543213	0.052979	0.455566	-78.910576	10.387125	-16.547649
55794		-1.767867	-9.463109	1.808264	-0.000095	0.005310	-0.010008	0.544189	0.055176	0.449463	-78.910730	10.384376	-16.548762
55795		-1.803523	-9.471464	1.848027	-0.000914	0.006205	-0.006466	0.547852	0.057129	0.449219	-78.911477	10.383861	-16.550208
55796		-1.772001	-9.482618	1.858707	-0.001622	0.005340	-0.009692	0.542480	0.057129	0.442383	-78.912502	10.381292	-16.551303
55797		-1.757485	-9.473629	1.828287	-0.000673	0.002506	-0.004112	0.544678	0.063721	0.451172	-78.912647	10.381665	-16.550046
55798		-1.787767	-9.462791	1.817204	-0.001622	0.005340	-0.009692	0.537354	0.054199	0.445313	-78.913673	10.379097	-16.551141
55799		-1.773943	-9.450806	1.846311	-0.003814	0.007787	-0.005545	0.542480	0.058350	0.440430	-78.916194	10.379219	-16.553434
55800		-1.768759	-9.428722	1.854900	-0.000949	0.002834	-0.005580	0.543701	0.054688	0.446533	-78.916493	10.378687	-16.552636
55801		-1.791628	-9.482459	1.867142	-0.001346	0.005011	-0.008224	0.544189	0.056885	0.448730	-78.917368	10.377028	-16.553218
55802		-1.759330	-9.496658	1.818020	-0.002995	0.006891	-0.009086	0.540283	0.057617	0.442627	-78.919327	10.374971	-16.555131
55803		-1.798697	-9.472797	1.845899	-0.002908	0.001670	-0.007023	0.545166	0.061035	0.456543	-78.920732	10.373610	-16.553850
55804		-1.766535	-9.486965	1.796763	-0.004347	-0.003521	-0.004644	0.540283	0.052734	0.443604	-78.922305	10.372904	-16.549315
55805		-1.802347	-9.495383	1.836216	-0.005996	-0.001642	-0.005506	0.547852	0.054688	0.438721	-78.925125	10.372036	-16.546177
55806		-1.784306	-9.518746	1.816845	-0.011708	-0.003701	-0.001601	0.543945	0.061768	0.449707	-78.930836	10.373022	-16.541198
55807		-1.801962	-9.553372	1.777514	-0.010679	-0.011666	-0.001903	0.538574	0.055176	0.446289	-78.935212	10.373071	-16.531500
55808		-1.751592	-9.475706	1.823173	-0.012759	-0.010981	-0.004522	0.548096	0.055176	0.446289	-78.940834	10.371615	-16.522687
55809		-1.786317	-9.429735	1.859427	-0.010955	-0.011339	-0.003370	0.540039	0.059570	0.444824	-78.945467	10.370904	-16.513507
55810		-1.782241	-9.519860	1.813033	-0.014685	-0.008773	-0.006850	0.547852	0.046387	0.440186	-78.952467	10.368383	-16.506215
55811		-1.771208	-9.478737	1.770204	-0.008421	-0.007369	-0.007821	0.541016	0.053955	0.443115	-78.956150	10.365633	-16.499506
55812		-1.766653	-9.511291	1.781258	-0.006617	-0.007727	-0.006670	0.543945	0.060059	0.449219	-78.958632	10.363330	-16.492792
55813		-1.789026	-9.507696	1.849914	-0.011012	-0.002747	-0.006316	0.548340	0.057617	0.446045	-78.964242	10.361881	-16.488993
55814		-1.783204	-9.485889	1.857757	-0.012827	-0.002297	-0.015411	0.549072	0.058350	0.443359	-78.971016	10.355258	-16.486357
55815		-1.758364	-9.432771	1.844163	-0.014233	-0.004119	-0.013919	0.547852	0.060303	0.440674	-78.978464	10.349384	-16.482257
55816		-1.770267	-9.445399	1.813456	-0.012242	0.000417	-0.013360	0.537842	0.052490	0.454346	-78.985141	10.344213	-16.480942
55817		-1.769736	-9.442904	1.872040	-0.012120	-0.001434	-0.012185	0.540771	0.061279	0.444092	-78.991646	10.339617	-16.478609
55818		-1.764064	-9.478606	1.822716	-0.013925	-0.001077	-0.013336	0.542725	0.056152	0.446533	-78.999133	10.334296	-16.476437
55819		-1.780453	-9.456060	1.839764	-0.020343	-0.004007	-0.012656	0.538574	0.064941	0.446777	-79.010073	10.329124	-16.472694
55820		-1.769941	-9.469672	1.798715	-0.020621	-0.003678	-0.014123	0.545898	0.061768	0.449463	-79.021146	10.323077	-16.469120
55821		-1.737495	-9.423769	1.864924	-0.016827	0.000501	-0.012411	0.544189	0.062500	0.442383	-79.030507	10.318479	-16.468235
55822		-1.763045	-9.448551	1.804050	-0.021920	0.004518	-0.007336	0.544678	0.052490	0.445801	-79.043030	10.317143	-16.468593
55823		-1.749126	-9.436897	1.831800	-0.014468	-0.000515	-0.008326	0.541016	0.061035	0.438965	-79.050877	10.314811	-16.466102
55824		-1.779427	-9.426335	1.819533	-0.015134	0.001896	-0.004491	0.548340	0.061279	0.450195	-79.059185	10.314791	-16.464647
55825		-1.766059	-9.471949	1.790524	-0.013606	0.001868	-0.004807	0.547607	0.058105	0.445068	-79.066688	10.314651	-16.463284
55826		-1.774809	-9.459339	1.828328	-0.015288	0.000374	-0.004784	0.540039	0.057861	0.441895	-79.074935	10.314301	-16.460990
55827		-1.756893	-9.482692	1.808332	-0.012775	0.000879	-0.000406	0.542236	0.056641	0.433838	-79.081793	10.316570	-16.458447
55828		-1.747284	-9.438575	1.824898	-0.016693	-0.001450	-0.003294	0.535645	0.051025	0.447021	-79.090629	10.316861	-16.454946
55829		-1.765701	-9.470343	1.844818	-0.011248	0.000851	-0.000722	0.535889	0.058105	0.451660	-79.096641	10.318992	-16.452359
55830		-1.777957	-9.428138	1.811614	-0.012806	-0.002494	0.000475	0.541748	0.051758	0.446533	-79.103068	10.321291	-16.447845
55831		-1.769653	-9.438482	1.830762	-0.016650	0.001821	0.003769	0.536865	0.059082	0.447021	-79.112201	10.326037	-16.445936
55832		-1.752311	-9.461706	1.810803	-0.010570	-0.001661	0.003385	0.540039	0.059326	0.448486	-79.117375	10.330065	-16.441580
55833		-1.774959	-9.461014	1.819492	-0.010694	0.000191	0.002212	0.540771	0.058838	0.438477	-79.122923	10.333698	-16.439002
55834		-1.761362	-9.451843	1.788378	-0.008765	-0.002019	0.004536	0.550293	0.057129	0.450439	-79.127003	10.338335	-16.434316
55835		-1.775607	-9.461256	1.817605	-0.012068	0.001739	0.002822	0.543701	0.060059	0.446045	-79.133472	10.342509	-16.431897
55836		-1.771292	-9.439199	1.825471	-0.011667	-0.000443	0.005461	0.545410	0.056396	0.455566	-79.139357	10.347839	-16.428011
55837		-1.753975	-9.462367	1.805732	-0.010694	0.000191	0.002212	0.549561	0.052979	0.440674	-79.144909	10.351496	-16.425275
55838		-1.812060	-9.472923	1.794661	-0.008039	0.002319	-0.001059	0.545654	0.052002	0.444824	-79.149128	10.353454	-16.423684
55839		-1.754236	-9.462650	1.803991	-0.008581	0.002875	0.003951	0.542969	0.046387	0.445068	-79.153721	10.358467	-16.421365
55840		-1.794613	-9.438865	1.831674	-0.004245	0.006497	0.000657	0.547119	0.053711	0.442871	-79.156161	10.361843	-16.421978
55841		-1.746217	-9.472961	1.823142	-0.007423	0.008403	0.000117	0.541260	0.056641	0.442383	-79.160757	10.365320	-16.423394
55842		-1.759371	-9.427871	1.849989	-0.007270	0.009925	0.000411	0.541748	0.055908	0.447754	-79.165288	10.368927	-16.425995
55843		-1.758904	-9.430753	1.789321	-0.008798	0.009951	0.000727	0.541016	0.062256	0.455078	-79.170777	10.372812	-16.428757
55844		-1.790968	-9.474441	1.780028	-0.007270	0.009924	0.000411	0.539063	0.058105	0.443848	-79.175309	10.376418	-16.431357
55845		-1.723775	-9.419761	1.807532	-0.003906	0.012912	0.000368	0.544434	0.062500	0.447998	-79.178297	10.380360	-16.436382
55846		-1.792160	-9.414545	1.895800	-0.001548	0.011892	0.004453	0.542236	0.059570	0.450928	-79.179674	10.386452	-16.439667
55847		-1.747121	-9.361607	1.873672	-0.001302	0.008187	0.006797	0.549805	0.057861	0.446045	-79.180537	10.393497	-16.441105
55848		-1.756966	-9.408571	1.795564	-0.002975	0.006586	0.014761	0.539795	0.061279	0.446045	-79.181982	10.404819	-16.440228
55849		-1.782005	-9.519334	1.750002	-0.004966	0.002050	0.014194	0.543213	0.056641	0.446777	-79.184153	10.415390	-16.436955
55850		-1.823751	-9.552525	1.720709	-0.003347	-0.003203	0.015928	0.543945	0.060547	0.443359	-79.184774	10.426316	-16.430349
55851		-1.775301	-9.474576	1.767333	-0.005614	-0.007408	0.013893	0.547363	0.056152	0.444336	-79.186358	10.435713	-16.421673
55852		-1.781121	-9.439384	1.814920	-0.011328	-0.009482	0.017794	0.542725	0.058838	0.440186	-79.190862	10.447015	-16.411271
55853		-1.773408	-9.394858	1.832073	-0.011906	-0.012302	0.023682	0.543457	0.056885	0.446533	-79.195341	10.461412	-16.398421
55854		-1.763417	-9.437139	1.863115	-0.014321	-0.018137	0.029296	0.544434	0.051270	0.446533	-79.200426	10.478259	-16.381810
55855		-1.760676	-9.417338	1.811461	-0.015000	-0.031080	0.037815	0.546387	0.050537	0.441406	-79.204465	10.498636	-16.356947
55856		-1.795754	-9.460484	1.801757	-0.025612	-0.036113	0.042076	0.548584	0.058105	0.435791	-79.213877	10.520751	-16.328652
55857		-1.821875	-9.516535	1.752268	-0.027265	-0.034235	0.041222	0.539551	0.053955	0.442871	-79.224489	10.542710	-16.300909
55858		-1.843124	-9.550410	1.711783	-0.026330	-0.036976	0.038850	0.546631	0.056885	0.455811	-79.234266	10.562927	-16.272475
55859		-1.806057	-9.574071	1.681707	-0.020583	-0.031533	0.034071	0.548340	0.054199	0.444580	-79.241500	10.581119	-16.248247
55860		-1.843877	-9.527667	1.718089	-0.017954	-0.044761	0.035472	0.552246	0.058838	0.447998	-79.245709	10.598609	-16.215726
55861		-1.846630	-9.527257	1.717405	-0.014228	-0.047344	0.038941	0.543701	0.057129	0.449219	-79.247504	10.617847	-16.181375
55862		-1.822289	-9.505510	1.716408	-0.013135	-0.060546	0.040658	0.549072	0.058594	0.447021	-79.247158	10.636571	-16.139245
55863		-1.829660	-9.467388	1.824528	-0.008676	-0.058786	0.038535	0.547363	0.054199	0.437988	-79.244560	10.654318	-16.098913
55864		-1.844591	-9.424245	1.792621	-0.014197	-0.055964	0.041869	0.539307	0.051514	0.446289	-79.245256	10.674211	-16.059271
55865		-1.816468	-9.434903	1.803148	-0.010136	-0.052014	0.037106	0.548096	0.056152	0.434326	-79.244233	10.691944	-16.022595
55866		-1.837277	-9.468419	1.764809	-0.005717	-0.053631	0.035853	0.551514	0.052002	0.446045	-79.240416	10.708699	-15.984939
55867		-1.817620	-9.468727	1.755622	-0.003280	-0.059903	0.041976	0.546387	0.046387	0.442139	-79.234474	10.728310	-15.942818
55868		-1.812146	-9.478210	1.777033	-0.001327	-0.070741	0.047212	0.551270	0.051270	0.442627	-79.226057	10.749618	-15.894113
55869		-1.837715	-9.478934	1.728301	-0.001788	-0.075436	0.054273	0.546387	0.042969	0.442627	-79.217368	10.774544	-15.841865
55870		-1.838178	-9.510251	1.741259	0.005593	-0.075392	0.059147	0.542480	0.045898	0.440430	-79.204199	10.802055	-15.789176
55871		-1.827542	-9.442630	1.770553	0.012017	-0.072488	0.058451	0.551758	0.049072	0.435791	-79.187827	10.829675	-15.738299
55872		-1.867569	-9.449598	1.813465	0.017391	-0.073478	0.053937	0.545654	0.045410	0.440186	-79.168159	10.854430	-15.687252
55873		-1.876167	-9.475599	1.688083	0.020647	-0.068653	0.052712	0.551514	0.053223	0.446777	-79.147282	10.879151	-15.638894
55874		-1.871375	-9.481776	1.772256	0.038089	-0.062945	0.050330	0.550049	0.052246	0.435059	-79.116921	10.902975	-15.594252
55875		-1.886926	-9.437412	1.746016	0.056215	-0.056269	0.043222	0.555908	0.047607	0.436768	-79.077137	10.923554	-15.554475
55876		-1.912122	-9.434434	1.763119	0.072996	-0.056659	0.039652	0.547119	0.043945	0.426514	-79.027644	10.941994	-15.514578
55877		-1.886829	-9.408626	1.830310	0.084847	-0.047883	0.024713	0.550781	0.052246	0.431152	-78.972758	10.953138	-15.480635
55878		-1.877683	-9.359572	1.916901	0.090178	-0.031663	0.014322	0.551514	0.039795	0.437500	-78.916657	10.960006	-15.457850
55879		-1.922306	-9.355552	1.945565	0.087880	-0.011777	-0.003278	0.551758	0.048340	0.429199	-78.864559	10.959339	-15.448034
55880		-1.902524	-9.472812	1.770042	0.086344	-0.008263	-0.011779	0.555176	0.043945	0.435791	-78.813760	10.954089	-15.441582
55881		-1.930321	-9.549903	1.722927	0.096169	-0.011011	-0.009623	0.555420	0.045166	0.436035	-78.757127	10.949944	-15.432649
55882		-1.870811	-9.538567	1.742288	0.108194	-0.012837	-0.012514	0.544922	0.041992	0.435791	-78.693330	10.943757	-15.423673
55883		-1.864412	-9.511573	1.821541	0.110670	-0.015734	-0.007259	0.547852	0.048340	0.434082	-78.627899	10.940443	-15.412152
55884		-1.839598	-9.450088	1.938558	0.101907	-0.017707	-0.002656	0.554688	0.049072	0.428955	-78.566963	10.939222	-15.399268
55885		-1.856503	-9.424992	1.966016	0.074521	-0.022269	0.005283	0.553223	0.050537	0.430664	-78.521207	10.942108	-15.382383
55886		-1.834528	-9.424726	1.962602	0.056388	-0.020297	0.009483	0.547607	0.043457	0.431152	-78.485802	10.947385	-15.366607
55887		-1.850850	-9.493452	1.881469	0.038990	-0.017455	0.016902	0.559326	0.044434	0.439453	-78.460676	10.957358	-15.351076
55888		-1.845760	-9.415678	1.891088	0.033424	-0.029939	0.025008	0.553955	0.051514	0.429688	-78.437030	10.970230	-15.327967
55889		-1.849543	-9.469034	1.897550	0.027332	-0.033242	0.035156	0.559814	0.050293	0.430908	-78.416450	10.988616	-15.301214
55890		-1.869521	-9.444502	1.919064	0.018467	-0.033340	0.038584	0.554932	0.051758	0.425049	-78.400681	11.008700	-15.274556
55891		-1.896753	-9.500060	1.874454	0.011075	-0.036851	0.042583	0.552490	0.049072	0.429932	-78.388780	11.030761	-15.244519
55892		-1.853736	-9.443752	1.912435	0.003053	-0.034476	0.041570	0.543701	0.043457	0.421875	-78.381630	11.052379	-15.216848
55893		-1.882628	-9.406116	1.971081	-0.002647	-0.036500	0.045530	0.557373	0.040771	0.432129	-78.377596	11.076180	-15.187045
55894		-1.891178	-9.427703	1.962106	-0.016037	-0.029639	0.040205	0.555908	0.042969	0.428467	-78.381924	11.097588	-15.162294
55895		-1.912043	-9.407147	1.919793	-0.024278	-0.027010	0.045677	0.549561	0.044922	0.426025	-78.391333	11.122652	-15.137533
55896		-1.929155	-9.415729	1.947951	-0.034394	-0.015325	0.039090	0.557861	0.044189	0.426514	-78.407766	11.145092	-15.121103
55897		-1.910502	-9.420304	1.874758	-0.042870	-0.005530	0.033359	0.556396	0.041748	0.427979	-78.430425	11.165652	-15.110250
55898		-1.945678	-9.460420	1.922893	-0.046603	-0.002938	0.029902	0.559814	0.046631	0.421387	-78.455426	11.184369	-15.101999
55899		-1.893720	-9.418899	1.915720	-0.050667	0.001751	0.031747	0.556152	0.042480	0.421875	-78.483378	11.204865	-15.095188
55900		-1.896336	-9.416261	1.969831	-0.066707	0.006527	0.029739	0.549316	0.040771	0.425781	-78.520953	11.224580	-15.092392
55901		-1.922117	-9.418923	1.913304	-0.076703	0.004292	0.036153	0.552490	0.039063	0.432129	-78.564024	11.247854	-15.086883
55902		-1.941997	-9.489222	1.819745	-0.080210	-0.000298	0.043898	0.552002	0.038330	0.433350	-78.608256	11.274751	-15.078569
55903		-1.946345	-9.489790	1.812123	-0.081065	-0.002787	0.048340	0.546387	0.035645	0.427246	-78.652813	11.304100	-15.068247
55904		-1.968010	-9.466801	1.823738	-0.074015	-0.005817	0.052604	0.558594	0.041504	0.426514	-78.692679	11.335279	-15.055812
55905		-1.965180	-9.387558	1.882805	-0.071478	-0.001862	0.048130	0.555176	0.032959	0.425049	-78.731821	11.364601	-15.045775
55906		-1.960885	-9.398226	1.896536	-0.070292	0.003660	0.044276	0.557373	0.038574	0.429443	-78.770809	11.392177	-15.039763
55907		-1.982003	-9.378152	1.849543	-0.059167	0.008042	0.034899	0.562988	0.034668	0.432129	-78.804315	11.415201	-15.036733
55908		-1.959241	-9.409395	1.905219	-0.053855	0.012257	0.028305	0.561035	0.030273	0.424561	-78.835221	11.434762	-15.037494
55909		-1.965606	-9.380283	1.828892	-0.048194	0.019519	0.022293	0.557373	0.039795	0.435791	-78.864034	11.452006	-15.042226
55910		-1.961518	-9.448248	1.787683	-0.038149	0.016518	0.017945	0.547852	0.032227	0.427734	-78.886664	11.466213	-15.046618
55911		-2.007882	-9.445871	1.804708	-0.021045	0.010481	0.017852	0.560059	0.036377	0.434082	-78.898991	11.479870	-15.047636
55912		-1.971430	-9.380870	1.819585	-0.013808	0.012467	0.013571	0.559814	0.039551	0.428467	-78.907314	11.491169	-15.050204
55913		-1.994764	-9.379582	1.828454	-0.005956	0.012043	0.005446	0.554932	0.031006	0.433105	-78.911425	11.498002	-15.053179
55914		-1.964256	-9.388371	1.898174	0.003197	0.011792	0.003476	0.562500	0.036377	0.434570	-78.910154	11.503550	-15.056496
55915		-1.937106	-9.367541	1.896785	-0.003859	0.014830	-0.000781	0.552734	0.033447	0.428711	-78.913551	11.507235	-15.061862
55916		-1.959759	-9.366410	1.905635	-0.013844	0.021209	0.002686	0.558838	0.031006	0.425537	-78.923141	11.513376	-15.070672
55917		-1.949015	-9.414884	1.815952	-0.020510	0.022051	0.001067	0.561035	0.031982	0.432373	-78.936845	11.518894	-15.079802
55918		-1.979824	-9.493083	1.757789	-0.013750	0.015843	0.012688	0.557373	0.038574	0.430908	-78.945544	11.530066	-15.084414
55919		-1.975610	-9.468208	1.825373	-0.005075	0.005788	0.011896	0.553711	0.030762	0.438721	-78.948291	11.539845	-15.083162
55920		-1.947022	-9.387421	1.940105	-0.016413	0.013729	0.015982	0.560791	0.039551	0.434570	-78.958201	11.552636	-15.086194
55921		-1.920522	-9.456379	1.890447	-0.034071	0.025556	0.019034	0.554443	0.040283	0.434814	-78.979682	11.568588	-15.095800
55922		-1.887339	-9.446315	1.904919	-0.058266	0.027617	0.032516	0.557129	0.033936	0.438721	-79.014807	11.592195	-15.104970
55923		-1.850509	-9.412013	1.984343	-0.109595	0.052437	0.053399	0.561035	0.036865	0.433350	-79.081889	11.630353	-15.126319
55924		-1.857411	-9.505506	1.864287	-0.169369	0.064463	0.084448	0.558838	0.036621	0.431396	-79.183815	11.687140	-15.150991
55925		-1.897757	-9.674207	1.741526	-0.222692	0.065309	0.127696	0.556641	0.033203	0.445801	-79.315587	11.768397	-15.171422
55926		-1.788218	-9.757734	1.708072	-0.298524	0.053864	0.190498	0.562500	0.031494	0.439941	-79.488054	11.883679	-15.178864
55927		-1.809537	-9.518771	2.003354	-0.404857	0.082740	0.254180	0.558838	0.030029	0.439697	-79.723743	12.037875	-15.196864
55928		-1.895514	-9.627369	1.661910	-0.510155	0.120938	0.289431	0.564453	0.027344	0.438721	-80.023697	12.215651	-15.233788
55929		-1.929920	-9.777663	1.382385	-0.556778	0.133543	0.332468	0.551758	0.015137	0.449463	-80.351433	12.418766	-15.274715
55930		-1.844980	-9.738645	1.471089	-0.623200	0.140685	0.391196	0.558350	0.014160	0.452637	-80.717232	12.655488	-15.315403
55931		-1.899843	-9.783560	1.384348	-0.699860	0.164212	0.457528	0.564453	0.009277	0.459717	-81.129362	12.931628	-15.365787
55932		-1.818948	-9.967131	1.330820	-0.763649	0.189336	0.524965	0.565186	-0.004150	0.452637	-81.580553	13.247719	-15.426506
55933		-1.132743	-10.869789	1.027502	-0.703453	0.258577	0.664846	0.568848	-0.004639	0.459473	-82.005082	13.648335	-15.518574
55934		-1.124310	-10.953994	1.252913	-0.596508	0.285883	0.928578	0.570801	-0.016357	0.468262	-82.368350	14.200161	-15.608300
55935		-1.961559	-11.048082	1.085585	-0.382826	0.240085	1.093852	0.571045	-0.017090	0.470215	-82.601173	14.841754	-15.661633
55936		-2.209728	-10.263373	1.222031	-0.339031	0.221899	1.187516	0.576660	-0.032715	0.470947	-82.805331	15.535276	-15.699822
55937		-1.942444	-10.319078	1.318405	-0.318597	0.226298	1.293439	0.587646	-0.048096	0.470947	-82.997786	16.288885	-15.735503
55938		-1.967747	-10.173953	1.524159	-0.341338	0.261298	1.438606	0.592285	-0.054443	0.479248	-83.207316	17.127667	-15.784387
55939		-2.100702	-10.101897	1.653299	-0.375617	0.309647	1.596467	0.586670	-0.069336	0.480225	-83.443930	18.058875	-15.854826
55940		-2.247188	-10.089693	1.675806	-0.424334	0.348180	1.740474	0.595215	-0.093262	0.493164	-83.715153	19.074677	-15.943362
55941		-2.454757	-10.351756	1.373259	-0.442139	0.392686	1.887584	0.602295	-0.104736	0.488770	-84.006075	20.176015	-16.055147
55942		-2.596313	-10.298978	1.091780	-0.417347	0.414297	2.052426	0.605225	-0.129150	0.489258	-84.288143	21.372603	-16.176479
55943		-2.783765	-10.712739	0.833225	-0.363932	0.410171	2.225661	0.611816	-0.134521	0.497803	-84.539981	22.666488	-16.291943
55944		-2.989324	-11.141472	0.769502	-0.260012	0.368551	2.416756	0.608398	-0.166992	0.508301	-84.722534	24.067452	-16.376828
55945		-3.158659	-11.123712	0.848958	-0.147054	0.338251	2.627789	0.615967	-0.187012	0.503662	-84.831471	25.586143	-16.435496
55946		-4.001328	-11.750874	0.986296	-0.054066	0.282798	2.810733	0.614746	-0.203369	0.511230	-84.869344	27.207210	-16.451224
55947		-4.841514	-12.831954	0.921655	0.146951	0.232375	2.964367	0.628662	-0.237061	0.512451	-84.772719	28.912239	-16.424713
55948		-5.917518	-14.206409	1.128157	0.430368	0.199651	3.033490	0.625732	-0.259033	0.505615	-84.496607	30.655963	-16.365514
55949		-6.085292	-13.888977	1.514176	0.678918	0.223588	3.040599	0.638672	-0.291260	0.514404	-84.077822	32.403442	-16.308469
55950		-5.034100	-12.432503	1.875715	0.780514	0.281903	3.104188	0.641357	-0.310547	0.502930	-83.608841	34.191614	-16.269051
55951		-4.396812	-12.547123	2.012081	0.848175	0.358322	3.203237	0.636475	-0.325684	0.515137	-83.115154	36.039282	-16.255648
55952		-5.118512	-11.811610	2.274577	0.868909	0.475756	3.206481	0.639404	-0.354248	0.515381	-82.647257	37.898570	-16.305687
55953		-4.673802	-10.842563	2.211541	0.772459	0.589145	3.271442	0.652100	-0.377930	0.522217	-82.273770	39.801533	-16.415952
55954		-4.216762	-10.734654	1.734647	0.730058	0.716647	3.313915	0.641113	-0.404053	0.532227	-81.979327	41.741071	-16.605790
55955		-3.971195	-9.949932	1.554539	0.719785	0.839482	3.275676	0.650635	-0.436523	0.530029	-81.758587	43.667098	-16.888552
55956		-2.869319	-8.890930	1.456336	0.729104	0.938203	3.137636	0.641357	-0.456055	0.544678	-81.605916	45.526126	-17.266237
55957		-1.390068	-8.407307	1.486881	0.757558	0.966873	2.736765	0.636963	-0.476807	0.549072	-81.501534	47.158102	-17.722078
55958		0.405328	-8.454731	1.468947	0.711524	0.938906	2.060663	0.642334	-0.492676	0.562988	-81.484472	48.407800	-18.249626
55959		3.247130	-8.725428	1.509902	0.615780	0.976178	1.357256	0.639160	-0.500244	0.567139	-81.630158	49.258029	-18.912056
55960		-1.901177	-11.262277	1.248975	0.498270	1.130714	0.741049	0.644287	-0.505127	0.574463	-82.021731	49.772874	-19.802364
55961		-1.301534	-11.234719	1.675728	0.524105	1.011576	0.047506	0.644043	-0.499512	0.580566	-82.393292	49.876413	-20.681978
55962		1.215113	-8.541915	1.743435	0.498428	0.976167	-0.421869	0.650879	-0.492432	0.591064	-82.797295	49.711275	-21.585021
55963		1.125548	-6.892732	1.555198	0.368581	0.879260	-0.722315	0.645752	-0.478760	0.599854	-83.227214	49.358943	-22.428158
55964		1.215905	-6.526112	1.569279	0.215326	0.755569	-0.892811	0.662598	-0.466553	0.607178	-83.665020	48.902670	-23.170381
55965		0.969005	-6.845882	1.545225	0.120479	0.644538	-0.998557	0.663330	-0.464600	0.609619	-84.078062	48.369798	-23.813381
55966		0.524489	-7.174011	1.533021	0.090844	0.503008	-1.128167	0.681885	-0.444092	0.612305	-84.414152	47.758114	-24.335278
55967		0.251233	-7.383591	1.614145	0.087122	0.345609	-1.314608	0.694092	-0.428223	0.620361	-84.652114	47.023174	-24.727330
55968		-0.067377	-7.810212	1.759053	0.074782	0.180139	-1.559104	0.696045	-0.405518	0.618164	-84.801656	46.145723	-24.992319
55969		-0.257690	-7.583659	1.677888	0.054597	0.002097	-1.813618	0.716797	-0.376221	0.612305	-84.862826	45.106327	-25.122787
55970		-0.633233	-7.964904	1.758155	0.018773	-0.157777	-2.055168	0.727051	-0.352295	0.606689	-84.864400	43.928030	-25.140516
55971		-0.783338	-7.894288	1.656221	0.020610	-0.308774	-2.277774	0.736084	-0.317139	0.601807	-84.793151	42.607175	-25.055143
55972		-1.036520	-7.871427	1.638036	0.028921	-0.431162	-2.445451	0.747314	-0.283203	0.589355	-84.668742	41.191854	-24.893830
55973		-1.381760	-8.031737	1.575722	0.060057	-0.529887	-2.569328	0.751221	-0.242432	0.579102	-84.491153	39.691987	-24.674668
55974		-1.837110	-8.318600	1.453953	0.115817	-0.608673	-2.659727	0.763916	-0.194824	0.568359	-84.262784	38.143803	-24.416964
55975		-2.333782	-8.589045	1.230372	0.206007	-0.671531	-2.727343	0.770508	-0.153564	0.547607	-83.971145	36.543858	-24.132523
55976		-2.724402	-8.792390	1.086929	0.306439	-0.729212	-2.773029	0.762695	-0.105469	0.538574	-83.618167	34.921713	-23.828979
55977		-3.103371	-8.933075	1.127509	0.374645	-0.750265	-2.795781	0.771240	-0.063965	0.518311	-83.235122	33.274750	-23.530488
55978		-3.668930	-9.142125	1.220833	0.411109	-0.757454	-2.805151	0.764648	-0.020264	0.497314	-82.847536	31.629277	-23.247396
55979		-4.361729	-9.454784	1.298231	0.408730	-0.768385	-2.805102	0.746094	0.025879	0.481934	-82.472395	29.972362	-22.974098
55980		-4.852518	-9.806264	1.379560	0.391700	-0.789510	-2.805316	0.725830	0.062744	0.472900	-82.116450	28.321359	-22.704335
55981		-5.284741	-10.021271	1.619249	0.343497	-0.816390	-2.806081	0.722168	0.111084	0.444580	-81.793012	26.657260	-22.432086
55982		-5.648496	-10.149405	1.754497	0.249644	-0.851655	-2.822119	0.700928	0.145264	0.437500	-81.528312	24.989061	-22.153063
55983		-5.960433	-10.463548	1.995035	0.138876	-0.873576	-2.842297	0.665039	0.181152	0.413086	-81.333258	23.297540	-21.872966
55984		-6.315906	-10.983274	2.233856	0.037438	-0.873384	-2.881609	0.647705	0.213867	0.410400	-81.209680	21.592093	-21.605769
55985		-6.858199	-11.155598	2.356666	-0.010370	-0.839805	-2.958785	0.620605	0.248047	0.405029	-81.132079	19.836682	-21.372133
55986		-7.291283	-11.168287	2.518152	-0.022526	-0.795837	-3.030152	0.583740	0.270020	0.393799	-81.081378	18.053317	-21.176540
55987		-8.075146	-11.128256	2.514345	0.026952	-0.751613	-3.059479	0.556152	0.297607	0.392822	-81.016892	16.248719	-21.013406
55988		-8.974216	-10.686147	2.543547	0.121857	-0.743479	-3.031804	0.523682	0.313965	0.381836	-80.905571	14.468668	-20.857129
55989		-9.703753	-9.965930	2.536585	0.199764	-0.758401	-2.940183	0.500488	0.331299	0.374023	-80.750528	12.731002	-20.688777
55990		-10.443848	-9.273541	2.623138	0.236448	-0.794547	-2.770606	0.469238	0.352783	0.377197	-80.573897	11.093113	-20.489938
55991		-10.983273	-8.702945	2.591513	0.233036	-0.836254	-2.552321	0.455078	0.351807	0.376221	-80.396662	9.567243	-20.252127
55992		-11.306672	-8.347331	2.458757	0.215676	-0.854934	-2.292336	0.421875	0.362061	0.375977	-80.231605	8.192502	-19.984101
55993		-11.324187	-7.936551	2.305074	0.215531	-0.854428	-2.028437	0.416260	0.360352	0.370850	-80.068855	6.960398	-19.694950
55994		-11.073645	-7.407223	2.096718	0.232234	-0.826508	-1.760542	0.400391	0.374023	0.373779	-79.902602	5.887048	-19.399215
55995		-10.538019	-6.990399	1.903949	0.264611	-0.773748	-1.474902	0.390137	0.375977	0.361816	-79.722246	4.974812	-19.107963
55996		-8.163725	-7.486338	2.686861	0.110295	-0.688500	-0.892630	0.380615	0.375732	0.368896	-79.634391	4.403299	-18.807534
55997		-12.150553	-3.424503	0.751358	0.343552	-0.323264	0.577840	0.389893	0.364990	0.365234	-79.416784	4.694106	-18.561372
55998		-12.518861	0.822471	0.637264	-0.223717	-0.294334	1.123106	0.406982	0.356201	0.362061	-79.519828	5.298256	-18.273891
55999		-13.341556	0.063964	0.377456	-0.698873	-0.351125	1.942549	0.417969	0.325684	0.373779	-79.878174	6.357682	-17.871780
56000		-14.927205	0.446220	0.418281	-0.937146	-0.412955	2.820843	0.435791	0.297363	0.374756	-80.350775	7.911648	-17.354277
56001		-17.567242	-12.928209	4.827434	-0.723567	-0.233708	3.913503	0.450684	0.282715	0.373535	-80.684126	10.103215	-16.843427
56002		-22.648655	-33.663567	-9.422635	-0.397282	0.251576	1.565942	0.457764	0.262695	0.376709	-80.910889	11.014326	-16.839239
56003		-1.856699	-18.777960	-13.871517	0.328441	1.555990	-1.539445	0.455566	0.278564	0.385010	-80.913324	10.287967	-17.873712
56004		-1.711129	-8.781496	5.300492	1.734683	0.243015	-0.106644	0.452881	0.275635	0.382080	-79.945510	10.253236	-18.020589
56005		-0.982764	-10.011637	3.534466	-0.237239	-0.027857	-0.079305	0.449219	0.287109	0.384277	-80.079655	10.209396	-18.009677
56006		-1.510473	-11.230584	-1.605773	0.078641	-0.221612	0.216514	0.452637	0.274902	0.388916	-80.007441	10.311977	-17.857787
56007		-2.178296	-8.528653	3.061151	0.199484	-0.114003	0.102853	0.450439	0.280029	0.372559	-79.879259	10.362184	-17.779016
56008		-1.438540	-9.264561	1.757950	0.105056	-0.172966	0.133270	0.448975	0.271729	0.370605	-79.798063	10.422201	-17.663138
56009		-1.822343	-9.374400	1.830946	0.135375	-0.173790	0.151219	0.456787	0.277832	0.372803	-79.699179	10.493320	-17.544858
56010		-2.145546	-9.227477	2.037226	0.104219	-0.149886	0.114637	0.460205	0.279541	0.366943	-79.620939	10.544852	-17.443923
56011		-1.842145	-8.976044	2.337981	0.057501	-0.070614	0.046895	0.451416	0.272949	0.366943	-79.579246	10.567565	-17.395537
56012		-1.814674	-9.175556	1.972018	0.012713	-0.038330	0.019496	0.459717	0.270752	0.367920	-79.566899	10.576902	-17.368489
56013		-1.971980	-9.833486	1.307794	0.051046	-0.008110	-0.005151	0.450439	0.275635	0.368408	-79.536411	10.576742	-17.361400
56014		-1.853002	-9.786884	1.406722	0.086762	0.011379	-0.023671	0.454590	0.274414	0.363770	-79.487702	10.566916	-17.367410
56015		-1.827019	-9.623214	1.658230	0.079737	0.008968	-0.018075	0.458252	0.276855	0.368408	-79.442873	10.561249	-17.371495
56016		-1.835271	-9.554969	1.702062	0.071303	0.004735	-0.011013	0.456543	0.278076	0.375977	-79.402078	10.557863	-17.372360
56017		-1.841095	-9.600894	1.630914	0.073713	-0.001496	-0.004860	0.452637	0.269043	0.367676	-79.359354	10.558530	-17.369043
56018		-1.790416	-9.496880	1.754926	0.069330	-0.008496	-0.000753	0.451660	0.274902	0.369629	-79.318098	10.559519	-17.361228
56019		-1.860361	-9.518573	1.719853	0.061667	-0.008388	0.000735	0.456787	0.269775	0.362549	-79.281451	10.562588	-17.353360
56020		-1.870039	-9.643990	1.582185	0.072096	-0.020267	0.008923	0.453613	0.282471	0.366943	-79.237181	10.567756	-17.337753
56021		-1.874106	-9.582508	1.706978	0.082765	-0.027162	0.008594	0.458740	0.274170	0.363770	-79.186329	10.573218	-17.318279
56022		-1.835784	-9.435370	1.799651	0.081248	-0.023781	0.008017	0.459717	0.281006	0.360840	-79.136460	10.577472	-17.300749
56023		-1.834855	-9.351348	1.933455	0.079710	-0.015097	-0.002557	0.456299	0.277100	0.370605	-79.088851	10.577926	-17.289401
56024		-1.779840	-9.307026	1.940386	0.070038	0.001084	-0.016344	0.460449	0.272461	0.366211	-79.048510	10.571149	-17.288787
56025		-1.820355	-9.419455	1.851581	0.081578	0.015321	-0.026659	0.452637	0.281250	0.361572	-79.003498	10.561339	-17.297515
56026		-1.854574	-9.372442	1.895363	0.082838	0.015615	-0.028425	0.446533	0.275391	0.354248	-78.957594	10.549358	-17.306571
56027		-1.855050	-9.451273	1.836828	0.079464	0.009255	-0.027530	0.445313	0.277588	0.358643	-78.913169	10.538399	-17.311943
56028		-1.837317	-9.553182	1.760365	0.081471	0.001851	-0.023114	0.445557	0.277832	0.365234	-78.866501	10.527899	-17.312549
56029		-1.835972	-9.606634	1.771017	0.080539	-0.007345	-0.016922	0.451660	0.277832	0.357178	-78.819514	10.521066	-17.307255
56030		-1.839370	-9.515620	1.823733	0.078457	-0.010043	-0.018676	0.459473	0.277832	0.364502	-78.773243	10.511737	-17.300577
56031		-1.826721	-9.444472	1.917100	0.063433	-0.006769	-0.015120	0.455078	0.274902	0.359131	-78.736092	10.505965	-17.295421
56032		-1.794635	-9.454212	1.934454	0.054653	-0.005430	-0.011574	0.457764	0.275879	0.361572	-78.703796	10.501135	-17.290583
56033		-1.850972	-9.464476	1.927608	0.041520	0.000927	-0.015679	0.452881	0.273682	0.356445	-78.680008	10.495899	-17.289895
56034		-1.815191	-9.535833	1.826374	0.030669	-0.000424	-0.013887	0.458984	0.280762	0.355957	-78.662025	10.490329	-17.288186
56035		-1.797444	-9.500748	1.867536	0.022401	-0.003082	-0.006509	0.458252	0.286865	0.360107	-78.648584	10.489786	-17.284160
56036		-1.810929	-9.455131	1.896062	0.008719	-0.011426	-0.000865	0.455322	0.275635	0.358154	-78.641761	10.490289	-17.274675
56037		-1.869205	-9.520476	1.888326	0.000612	-0.009202	0.005910	0.455078	0.281250	0.356201	-78.639908	10.496022	-17.265728
56038		-1.820151	-9.499584	1.878724	-0.010151	-0.019113	0.010672	0.451660	0.276123	0.353760	-78.642854	10.502137	-17.250526
56039		-1.754092	-9.556456	1.852505	-0.038397	-0.038257	0.026386	0.458252	0.278320	0.353760	-78.659894	10.516093	-17.222631
56040		-1.798225	-9.532764	1.875965	-0.060205	-0.068350	0.062414	0.456299	0.281738	0.355225	-78.685286	10.545745	-17.173373
56041		-1.791232	-9.661282	1.719220	-0.065769	-0.104814	0.094004	0.459717	0.281006	0.353760	-78.709589	10.590226	-17.099720
56042		-1.798492	-9.577302	1.839625	-0.082327	-0.140809	0.126215	0.453369	0.277344	0.348389	-78.738610	10.647653	-17.001779
56043		-1.818289	-9.537599	1.741445	-0.095659	-0.147992	0.133651	0.464844	0.277344	0.361816	-78.774501	10.709652	-16.898947
56044		-1.852644	-9.532857	1.804171	-0.091360	-0.144430	0.130403	0.460205	0.273438	0.359131	-78.808027	10.769142	-16.798490
56045		-1.857526	-9.509971	1.806775	-0.095977	-0.132370	0.119544	0.465088	0.262695	0.358643	-78.845878	10.825061	-16.706228
56046		-1.891826	-9.533823	1.741286	-0.085877	-0.135317	0.115375	0.465820	0.275635	0.354248	-78.877378	10.877233	-16.612718
56047		-1.834492	-9.532741	1.767454	-0.080613	-0.131208	0.116819	0.464355	0.275879	0.352051	-78.906450	10.931844	-16.521460
56048		-1.878910	-9.543116	1.742359	-0.073685	-0.140931	0.122954	0.466309	0.270996	0.353516	-78.930021	10.987750	-16.423902
56049		-1.870788	-9.450382	1.833721	-0.073422	-0.137932	0.123553	0.467041	0.268555	0.354492	-78.953927	11.045476	-16.328053
56050		-1.914251	-9.348623	1.863772	-0.071550	-0.128222	0.122084	0.458008	0.266602	0.357422	-78.977503	11.102366	-16.237885
56051		-1.895743	-9.326439	1.859190	-0.066117	-0.113905	0.112934	0.470459	0.266602	0.353271	-78.999920	11.156819	-16.157000
56052		-1.904898	-9.322765	1.915184	-0.057768	-0.101163	0.102868	0.475098	0.267090	0.355713	-79.018859	11.205924	-16.084497
56053		-1.925421	-9.333906	1.882123	-0.053638	-0.081906	0.093444	0.469971	0.265869	0.354248	-79.037972	11.252952	-16.024137
56054		-1.914301	-9.299045	1.917643	-0.044999	-0.069483	0.084840	0.461426	0.268311	0.347900	-79.053425	11.295410	-15.971815
56055		-1.914755	-9.278850	1.864297	-0.037832	-0.053651	0.075670	0.471436	0.272461	0.342041	-79.066947	11.335538	-15.929642
56056		-1.931519	-9.319723	1.903286	-0.037329	-0.037129	0.072761	0.472656	0.261963	0.349854	-79.081853	11.374741	-15.897229
56057		-1.919967	-9.342259	1.881724	-0.039359	-0.033059	0.069267	0.471191	0.262695	0.350586	-79.098657	11.413513	-15.867589
56058		-1.918492	-9.409059	1.841703	-0.041239	-0.027592	0.074015	0.471436	0.255859	0.352051	-79.116820	11.454473	-15.840526
56059		-1.994975	-9.375284	1.796031	-0.041745	-0.032283	0.081075	0.473877	0.261963	0.350342	-79.134773	11.499981	-15.810043
56060		-1.990374	-9.417119	1.824800	-0.040280	-0.035703	0.081637	0.467773	0.262451	0.350830	-79.151251	11.544370	-15.777501
56061		-1.974895	-9.417338	1.812189	-0.037448	-0.032072	0.078672	0.469727	0.267822	0.342773	-79.166772	11.588562	-15.747420
56062		-2.012339	-9.404952	1.798760	-0.029755	-0.028887	0.076230	0.471436	0.263428	0.346924	-79.178081	11.630658	-15.719400
56063		-1.974210	-9.406202	1.777359	-0.028127	-0.030788	0.077087	0.476807	0.255127	0.350586	-79.188400	11.674102	-15.690239
56064		-2.030581	-9.424960	1.785654	-0.024031	-0.026855	0.072340	0.477051	0.265137	0.351318	-79.196713	11.714236	-15.663821
56065		-2.026669	-9.379794	1.802200	-0.022719	-0.023185	0.069689	0.473389	0.257080	0.344971	-79.204946	11.754335	-15.639846
56066		-2.001983	-9.390397	1.811262	-0.022977	-0.014242	0.065314	0.478760	0.255615	0.349121	-79.214258	11.791875	-15.621454
56067		-2.012726	-9.411661	1.800021	-0.027060	-0.009435	0.059209	0.468262	0.252441	0.356689	-79.226798	11.827550	-15.606540
56068		-2.015067	-9.443436	1.808776	-0.029494	0.001946	0.058997	0.477051	0.265381	0.346191	-79.241876	11.863275	-15.598160
56069		-1.967853	-9.455665	1.806593	-0.039599	0.004913	0.063272	0.471436	0.255615	0.347656	-79.263189	11.902770	-15.591071
56070		-2.028430	-9.499148	1.743984	-0.038765	0.012498	0.064769	0.475830	0.258057	0.355225	-79.284697	11.942875	-15.588156
56071		-2.051586	-9.477635	1.698696	-0.047072	0.015085	0.070197	0.472656	0.259277	0.346436	-79.311346	11.987343	-15.586197
56072		-2.104922	-9.531232	1.656013	-0.039851	0.008313	0.076838	0.478760	0.252930	0.351074	-79.332705	12.033802	-15.579597
56073		-2.108749	-9.418899	1.707818	-0.035271	0.008183	0.075894	0.478027	0.256592	0.350342	-79.351648	12.080742	-15.573082
56074		-2.140349	-9.471139	1.716368	-0.028436	0.008998	0.069919	0.481934	0.251221	0.351074	-79.366702	12.123382	-15.567653
56075		-2.122099	-9.416889	1.702355	-0.015748	0.009989	0.061216	0.475098	0.258301	0.353027	-79.375011	12.162248	-15.563788
56076		-2.150526	-9.560571	1.606623	-0.007982	0.002676	0.062837	0.479248	0.257080	0.356445	-79.377734	12.200234	-15.555494
56077		-2.054684	-9.550671	1.656961	-0.005736	-0.020873	0.074748	0.479004	0.257324	0.349365	-79.376239	12.243459	-15.532389
56078		-2.020170	-9.606315	1.638615	-0.028765	-0.034407	0.100312	0.476807	0.248535	0.356445	-79.385454	12.298633	-15.498675
56079		-2.074667	-9.839347	1.444537	-0.054111	-0.068150	0.145821	0.480225	0.248291	0.356934	-79.404180	12.376889	-15.440650
56080		-1.978862	-9.930709	1.403350	-0.102662	-0.103098	0.211689	0.477051	0.243896	0.342285	-79.444537	12.487596	-15.355347
56081		-1.987689	-10.003599	1.434139	-0.182627	-0.122277	0.274622	0.476563	0.240723	0.351807	-79.526940	12.632817	-15.252370
56082		-1.890597	-9.934515	1.631074	-0.285765	-0.092081	0.338940	0.484863	0.244629	0.355713	-79.670266	12.816627	-15.160185
56083		-1.895605	-9.769269	1.643271	-0.400192	-0.019295	0.402491	0.495361	0.236084	0.355469	-79.887186	13.044890	-15.104063
56084		-1.914811	-9.772662	1.471252	-0.466025	0.059058	0.459361	0.489258	0.227295	0.360596	-80.150529	13.312316	-15.088407
56085		-1.247880	-10.716192	1.272609	-0.416815	0.154017	0.548427	0.492188	0.230225	0.357422	-80.396981	13.640186	-15.120305
56086		-1.467040	-11.432763	1.339814	-0.175308	0.227525	0.767451	0.501465	0.219482	0.364990	-80.510337	14.097806	-15.174587
56087		-2.047555	-10.178668	1.260975	0.036528	0.205842	0.913011	0.503662	0.221191	0.371826	-80.496622	14.636331	-15.202634
56088		-2.149363	-10.308224	1.417936	0.129019	0.153729	0.998394	0.503906	0.208496	0.362061	-80.419694	15.217427	-15.191357
56089		-1.999544	-9.863871	1.745653	0.190960	0.137810	1.109794	0.512207	0.193359	0.365234	-80.301820	15.860580	-15.158702
56090		-2.172901	-9.718364	1.848838	0.212271	0.139710	1.228723	0.516846	0.186035	0.370850	-80.167455	16.570324	-15.113438
56091		-2.380742	-9.555817	1.821170	0.199927	0.140900	1.317248	0.523193	0.176758	0.371338	-80.037005	17.330646	-15.057986
56092		-2.527490	-9.594305	1.828579	0.199784	0.141026	1.397006	0.532959	0.168701	0.369385	-79.902355	18.135259	-14.992059
56093		-2.624942	-9.626121	1.846745	0.193249	0.137245	1.482074	0.545410	0.151611	0.372559	-79.766585	18.987847	-14.912609
56094		-2.746453	-9.664357	1.834749	0.191330	0.137761	1.565993	0.547119	0.146484	0.373535	-79.626584	19.887078	-14.821637
56095		-2.805112	-9.760232	1.706440	0.183552	0.127247	1.664736	0.562500	0.129639	0.374756	-79.483011	20.841101	-14.710622
56096		-2.905886	-9.912308	1.670953	0.204604	0.109188	1.782720	0.568359	0.114990	0.376221	-79.315099	21.858919	-14.571698
56097		-3.028273	-10.092225	1.650346	0.231992	0.084548	1.921215	0.574951	0.102783	0.377930	-79.115931	22.951993	-14.397298
56098		-3.183126	-10.204755	1.701998	0.272706	0.054837	2.074801	0.582031	0.079834	0.372314	-78.872841	24.127199	-14.180136
56099		-3.310699	-10.333161	1.761719	0.320103	0.039419	2.233476	0.590576	0.065674	0.385986	-78.583216	25.389150	-13.925941
56100		-3.478969	-10.591712	1.953806	0.366391	0.035351	2.401344	0.600098	0.038086	0.371582	-78.246243	26.743325	-13.637082
56101		-3.710827	-10.716500	2.115565	0.414027	0.059772	2.592246	0.608154	0.022461	0.376465	-77.865362	28.205850	-13.325183
56102		-4.232000	-11.274494	2.392900	0.449352	0.095595	2.781909	0.627441	0.002197	0.386475	-77.446925	29.776858	-12.993324
56103		-4.976544	-12.225989	2.693992	0.539596	0.162822	2.953605	0.635742	-0.034424	0.382080	-76.968405	31.449919	-12.660334
56104		-5.779380	-13.197589	3.198005	0.661527	0.259087	3.055318	0.644287	-0.056396	0.378174	-76.423824	33.189844	-12.350962
56105		-5.890858	-13.049790	3.702571	0.777079	0.415505	3.091818	0.653320	-0.082275	0.381836	-75.846015	34.968590	-12.114018
56106		-5.024997	-11.892016	3.770101	0.782902	0.598431	3.145713	0.659912	-0.106445	0.398438	-75.310522	36.801663	-11.965981
56107		-4.733827	-11.816719	3.852607	0.730067	0.794816	3.210666	0.662354	-0.139160	0.399658	-74.864275	38.697947	-11.920099
56108		-5.301514	-11.774756	3.963113	0.702506	0.979505	3.297747	0.675781	-0.179199	0.408691	-74.493882	40.670616	-11.970601
56109		-5.313682	-11.410693	3.853530	0.672062	1.146478	3.358183	0.668213	-0.205322	0.416016	-74.207321	42.701624	-12.118583
56110		-5.003301	-10.751981	3.807924	0.561136	1.271168	3.398357	0.682373	-0.232666	0.435059	-74.043368	44.775738	-12.346627
56111		-4.648510	-10.449345	3.498530	0.398416	1.365672	3.444910	0.678467	-0.269531	0.451660	-74.027594	46.889230	-12.642806
56112		-4.101053	-9.821715	2.944849	0.268904	1.460412	3.448663	0.677246	-0.300781	0.465576	-74.161788	49.020875	-13.031069
56113		-2.605748	-9.626050	2.690862	0.237881	1.468921	3.353451	0.669922	-0.331299	0.482178	-74.367007	51.098663	-13.476449
56114		-0.685090	-8.177683	2.546093	0.238147	1.442217	2.994039	0.659912	-0.366943	0.502686	-74.659985	52.974552	-14.021195
56115		-4.929458	-5.736852	2.148646	-0.051619	1.380447	2.650965	0.647705	-0.396240	0.510010	-75.189257	54.646476	-14.640331
56116		5.867149	-8.048938	3.305599	-0.053363	1.277660	1.805411	0.645996	-0.416748	0.532959	-75.864089	55.833167	-15.424606
56117		-4.352008	-12.175639	2.252835	-0.165490	1.131591	0.477668	0.643555	-0.418457	0.548096	-76.793503	56.251384	-16.430967
56118		-1.002692	-13.903752	2.858649	0.091828	0.878131	-0.603956	0.644775	-0.412354	0.561768	-77.581793	56.027726	-17.443731
56119		1.540529	-10.919308	2.502726	0.409606	0.861863	-1.171204	0.636719	-0.396729	0.565430	-78.257740	55.473039	-18.545613
56120		2.270396	-7.077782	2.209326	0.517888	0.781213	-1.478495	0.637207	-0.392578	0.578613	-78.826783	54.733965	-19.601289
56121		2.460156	-5.530967	2.317794	0.403633	0.701579	-1.657164	0.629883	-0.378906	0.590576	-79.389753	53.874910	-20.579621
56122		2.239462	-5.547893	2.342792	0.237340	0.627941	-1.762851	0.624023	-0.366211	0.598145	-79.970249	52.947972	-21.472042
56123		1.595134	-6.140243	2.344672	0.101436	0.546067	-1.845117	0.628418	-0.343750	0.603027	-80.541061	51.955876	-22.265910
56124		0.961286	-6.741376	2.447968	-0.001786	0.425114	-1.971652	0.627686	-0.327637	0.610596	-81.066064	50.882025	-22.936289
56125		0.412523	-7.364592	2.577731	-0.057031	0.262085	-2.204823	0.623779	-0.313477	0.622314	-81.502587	49.652476	-23.462294
56126		0.127393	-7.763503	2.644437	-0.084458	0.071194	-2.508649	0.612305	-0.298828	0.627197	-81.833077	48.238636	-23.836489
56127		-0.042953	-8.133920	2.715919	-0.076630	-0.127723	-2.803073	0.627197	-0.279053	0.617188	-82.038485	46.634068	-24.056935
56128		-0.308830	-8.340295	2.808738	-0.045209	-0.315487	-3.061274	0.618408	-0.249512	0.626465	-82.125606	44.874362	-24.142519
56129		-0.660804	-8.708316	2.624050	0.022449	-0.494926	-3.261968	0.609131	-0.227783	0.624512	-82.084753	42.979467	-24.103699
56130		-1.116919	-9.019363	2.598264	0.139752	-0.670297	-3.419691	0.606689	-0.190186	0.632324	-81.905285	40.988185	-23.955292
56131		-1.592048	-9.102500	2.317965	0.265336	-0.843455	-3.575801	0.603516	-0.174316	0.629395	-81.594585	38.886036	-23.710030
56132		-2.187491	-9.069935	2.671079	0.362688	-1.037332	-3.710411	0.615479	-0.145508	0.613770	-81.175636	36.697496	-23.365738
56133		-2.913169	-8.892338	2.491406	0.375936	-1.231718	-3.837906	0.616943	-0.110352	0.607666	-80.705618	34.409172	-22.930137
56134		-3.389533	-9.438498	2.263586	0.347508	-1.402417	-3.932769	0.607422	-0.068848	0.607666	-80.229714	32.056263	-22.425415
56135		-3.787303	-9.717704	2.034401	0.318232	-1.556469	-4.015853	0.616455	-0.034668	0.587158	-79.758175	29.629428	-21.863965
56136		-3.945520	-9.845571	1.799521	0.269485	-1.670361	-4.077400	0.611816	-0.006592	0.583984	-79.322498	27.160624	-21.272898
56137		-3.941766	-10.356175	1.377416	0.240850	-1.729670	-4.110568	0.610352	0.031982	0.570801	-78.924693	24.654615	-20.681138
56138		-4.116318	-10.805073	1.013480	0.245594	-1.717156	-4.113077	0.600098	0.062256	0.564941	-78.563964	22.153547	-20.127691
56139		-4.629120	-11.032194	0.865482	0.253484	-1.637476	-4.081127	0.594238	0.107422	0.558105	-78.244853	19.668177	-19.643433
56140		-5.643991	-11.194108	1.199283	0.214041	-1.485765	-4.020566	0.586914	0.143799	0.538818	-78.001284	17.240916	-19.261863
56141		-7.990539	-11.380836	1.634966	0.128477	-1.302572	-3.979230	0.574951	0.178223	0.527588	-77.853208	14.849267	-18.995316
56142		-10.734696	-11.029663	2.021902	-0.029268	-1.142978	-3.941091	0.565186	0.210449	0.523438	-77.829081	12.506142	-18.822814
56143		-12.759964	-10.312410	2.726450	-0.267420	-0.984534	-3.846298	0.542480	0.240723	0.518555	-77.963030	10.227713	-18.728360
56144		-14.717891	-9.659561	3.254215	-0.520794	-0.793141	-3.637990	0.536377	0.274170	0.514160	-78.258409	8.096641	-18.709844
56145		-16.405769	-9.193242	3.405703	-0.705336	-0.553930	-3.288770	0.521729	0.305420	0.517822	-78.669682	6.182796	-18.773106
56146		-17.588505	-9.814233	5.317898	-1.547611	0.673888	-1.010438	0.499268	0.311768	0.528076	-79.606768	5.689291	-19.261018
56147		-24.499394	1.270105	-2.357512	-1.141115	0.571093	0.604311	0.513428	0.310059	0.536865	-80.286204	6.084933	-19.521091
56148		-32.960815	3.962466	1.199960	-0.763261	0.670929	1.625521	0.527588	0.292969	0.564453	-80.749120	7.069263	-19.745361
56149		-38.749606	1.959810	4.956924	-0.786419	0.571078	3.430923	0.542969	0.267090	0.562012	-81.200362	9.062600	-19.757229
56150		-39.571843	-21.651674	4.930701	-0.024114	-0.419062	2.862756	0.562744	0.249756	0.556885	-81.128580	10.648909	-19.257777
56151		-6.249824	-31.985753	-29.782710	-0.447901	1.560229	-1.676539	0.546631	0.253906	0.582764	-81.569117	9.837996	-20.299538
56152		1.245941	-13.549498	-2.986108	1.850422	0.184130	-0.194648	0.540771	0.258301	0.567383	-80.529281	9.746644	-20.419949
56153		-0.423937	-6.848529	8.159981	0.334001	-0.014367	0.012633	0.540039	0.268311	0.561523	-80.336413	9.756543	-20.407626
56154		-1.379561	-9.790634	0.468047	-0.116166	-0.314120	0.263033	0.549805	0.252441	0.568604	-80.367291	9.877319	-20.198944
56155		-2.484110	-10.409776	0.185395	0.292837	-0.179491	0.171610	0.551270	0.264404	0.553955	-80.178668	9.960903	-20.076260
56156		-1.478800	-8.491566	2.909910	0.287549	-0.146533	0.114739	0.537354	0.243652	0.556885	-79.996739	10.013561	-19.977800
56157		-1.731378	-9.185332	2.088639	0.198710	-0.149523	0.114849	0.543457	0.258789	0.547363	-79.865695	10.067422	-19.877519
56158		-2.181519	-9.136838	2.168111	0.146883	-0.126718	0.084186	0.550537	0.263428	0.549072	-79.766683	10.104397	-19.793270
56159		-1.760361	-8.442737	2.926359	0.069511	-0.056149	0.012646	0.552002	0.267822	0.554932	-79.720703	10.109856	-19.756852
56160		-1.631096	-8.932087	2.199190	-0.028411	0.009458	-0.039056	0.551758	0.260010	0.558350	-79.738014	10.091135	-19.763312
56161		-1.794352	-10.122129	1.012844	-0.005209	0.036262	-0.057869	0.552979	0.264893	0.551758	-79.745303	10.066262	-19.787107
56162		-1.714274	-10.036569	1.226586	0.035267	0.027926	-0.041193	0.560059	0.261719	0.555176	-79.728009	10.048221	-19.804360
56163		-1.731286	-9.706714	1.533791	0.028047	0.026889	-0.027528	0.551025	0.261719	0.551758	-79.714814	10.039486	-19.819656
56164		-1.839580	-9.708441	1.516977	0.027499	0.015554	-0.018766	0.552734	0.269287	0.551025	-79.700326	10.032831	-19.827502
56165		-1.767607	-9.733544	1.427245	0.045753	0.005349	-0.011367	0.550049	0.262207	0.548584	-79.674564	10.030998	-19.828792
56166		-1.711815	-9.569216	1.660152	0.062690	-0.001823	-0.003098	0.554932	0.255127	0.552979	-79.637896	10.031393	-19.825062
56167		-1.748573	-9.476129	1.778536	0.052260	0.003163	-0.009768	0.551270	0.254150	0.548096	-79.608178	10.030226	-19.824940
56168		-1.827305	-9.614114	1.633048	0.056743	0.004979	-0.011725	0.543457	0.263428	0.550293	-79.575753	10.026459	-19.826008
56169		-1.760862	-9.581570	1.603409	0.078262	0.004897	-0.015387	0.549561	0.265137	0.545410	-79.531416	10.022302	-19.827474
56170		-1.746875	-9.520614	1.719611	0.086067	0.003028	-0.015519	0.549072	0.257568	0.552979	-79.482066	10.016195	-19.827834
56171		-1.720268	-9.472078	1.797952	0.092890	0.009131	-0.023298	0.547363	0.260986	0.547852	-79.429924	10.008020	-19.832576
56172		-1.745077	-9.438477	1.802724	0.092517	0.011275	-0.025946	0.546631	0.261719	0.548828	-79.377893	9.996911	-19.838779
56173		-1.740542	-9.389843	1.888438	0.078063	0.017522	-0.038005	0.551758	0.264404	0.557617	-79.335348	9.981341	-19.849915
56174		-1.728157	-9.424307	1.847310	0.066333	0.022171	-0.042955	0.552002	0.265625	0.553223	-79.299716	9.961821	-19.864197
56175		-1.714984	-9.513560	1.808060	0.058516	0.024025	-0.042828	0.547852	0.262939	0.552490	-79.269089	9.944236	-19.879590
56176		-1.732758	-9.538553	1.752195	0.049201	0.019193	-0.040677	0.541260	0.259766	0.545166	-79.242930	9.925696	-19.891943
56177		-1.704813	-9.563963	1.679741	0.045683	0.012768	-0.031933	0.549805	0.259766	0.551514	-79.218338	9.913042	-19.899735
56178		-1.719970	-9.547769	1.781541	0.039588	0.002380	-0.018833	0.548096	0.272705	0.546875	-79.195622	9.905003	-19.900118
56179		-1.715108	-9.525035	1.793955	0.029326	-0.001560	-0.013175	0.549805	0.267822	0.541992	-79.178648	9.901361	-19.897690
56180		-1.699855	-9.489772	1.835559	0.015174	-0.006059	-0.011718	0.551270	0.265381	0.545898	-79.168958	9.896418	-19.892479
56181		-1.683154	-9.480166	1.807499	0.006559	-0.008488	-0.006025	0.547119	0.256104	0.546387	-79.164212	9.896043	-19.885313
56182		-1.668557	-9.445155	1.847086	-0.005623	-0.006932	-0.003646	0.544922	0.275146	0.541748	-79.166201	9.895549	-19.878722
56183		-1.696137	-9.515529	1.767550	-0.011768	-0.006912	-0.002603	0.542236	0.265381	0.549805	-79.172042	9.897257	-19.872081
56184		-1.692217	-9.547823	1.778551	-0.013397	-0.012134	0.007654	0.560303	0.259277	0.544678	-79.177761	9.902563	-19.861283
56185		-1.676245	-9.435972	1.822850	-0.020562	-0.019429	0.013677	0.549805	0.259766	0.540527	-79.187104	9.912078	-19.845714
56186		-1.676638	-9.490564	1.824370	-0.015479	-0.020075	0.015845	0.542725	0.272705	0.543945	-79.193079	9.921143	-19.829487
56187		-1.672658	-9.493603	1.764172	-0.006371	-0.021621	0.013983	0.549805	0.262939	0.552734	-79.194060	9.930586	-19.812632
56188		-1.715818	-9.525174	1.792538	0.003538	-0.019253	0.015958	0.546143	0.262207	0.544922	-79.189212	9.939804	-19.796862
56189		-1.715944	-9.495793	1.721790	0.006590	-0.015918	0.014552	0.556641	0.261719	0.536865	-79.183313	9.950167	-19.783201
56190		-1.691602	-9.502122	1.795912	0.019028	-0.021138	0.014524	0.555908	0.261475	0.537598	-79.169425	9.958370	-19.766507
56191		-1.678536	-9.466540	1.837131	0.012843	-0.014426	0.013802	0.545410	0.261719	0.544922	-79.160102	9.968456	-19.753777
56192		-1.706008	-9.488242	1.837756	0.017669	-0.011413	0.013608	0.554199	0.262939	0.547852	-79.147966	9.977186	-19.742736
56193		-1.732470	-9.480885	1.767236	0.022258	-0.008086	0.011938	0.551758	0.269287	0.550537	-79.133903	9.986892	-19.733828
56194		-1.726046	-9.489945	1.791007	0.029937	-0.008117	0.010629	0.546387	0.254883	0.535645	-79.115117	9.994296	-19.724991
56195		-1.689817	-9.454300	1.825379	0.031729	-0.011784	0.012728	0.550293	0.261475	0.534912	-79.095243	10.004032	-19.713878
56196		-1.717475	-9.475596	1.827915	0.038932	-0.011552	0.017876	0.549072	0.258301	0.546143	-79.070819	10.015135	-19.702274
56197		-1.685556	-9.407648	1.850743	0.033517	-0.015452	0.014829	0.552734	0.259521	0.544189	-79.049506	10.025634	-19.688825
56198		-1.706118	-9.438570	1.874471	0.036462	-0.013999	0.022532	0.545410	0.263184	0.536377	-79.026159	10.039081	-19.675299
56199		-1.695631	-9.450484	1.839694	0.032947	-0.020049	0.021882	0.549805	0.263184	0.542480	-79.004564	10.053024	-19.658433
56200		-1.727467	-9.494097	1.832875	0.027628	-0.019446	0.027652	0.549561	0.265381	0.549561	-78.985627	10.068744	-19.641215
56201		-1.756523	-9.460824	1.831782	0.027022	-0.016992	0.023519	0.557617	0.263916	0.541016	-78.967687	10.083921	-19.625903
56202		-1.761684	-9.482352	1.825645	0.029582	-0.009693	0.018264	0.552979	0.263916	0.537842	-78.948778	10.095422	-19.615290
56203		-1.728014	-9.494738	1.782159	0.029692	-0.008178	0.018557	0.546875	0.256836	0.542480	-78.930279	10.108761	-19.605556
56204		-1.746516	-9.477571	1.882919	0.028976	-0.007240	0.014131	0.555420	0.255127	0.540527	-78.912039	10.118200	-19.596798
56205		-1.725371	-9.422545	1.874351	0.024957	-0.006325	0.018163	0.552490	0.258057	0.540283	-78.896441	10.131507	-19.588157
56206		-1.737850	-9.434526	1.846549	0.023659	-0.006630	0.019902	0.561035	0.256836	0.540283	-78.881190	10.144254	-19.579094
56207		-1.744403	-9.430395	1.908216	0.020334	-0.002956	0.018060	0.556152	0.258789	0.537598	-78.868573	10.157862	-19.572382
56208		-1.767258	-9.509743	1.852902	0.018813	-0.006292	0.019216	0.556641	0.259766	0.538086	-78.856141	10.170256	-19.563583
56209		-1.750058	-9.477237	1.834469	0.017991	-0.007221	0.023906	0.555420	0.271240	0.539551	-78.844311	10.186667	-19.553770
56210		-1.734045	-9.473370	1.887563	0.014933	-0.010547	0.025325	0.544922	0.261230	0.534912	-78.833544	10.202020	-19.541846
56211		-1.747434	-9.485386	1.858861	0.011418	-0.016939	0.034096	0.562256	0.262939	0.537598	-78.824283	10.223066	-19.525327
56212		-1.739678	-9.471832	1.890098	0.004104	-0.019031	0.038073	0.559570	0.261963	0.538330	-78.818595	10.244639	-19.507112
56213		-1.777176	-9.483544	1.868415	-0.004031	-0.022049	0.046742	0.563965	0.259277	0.541260	-78.817393	10.272212	-19.486239
56214		-1.765377	-9.473509	1.839042	-0.006260	-0.027792	0.044365	0.557129	0.256836	0.536133	-78.816607	10.296346	-19.462304
56215		-1.776250	-9.517603	1.821210	-0.001057	-0.030281	0.047710	0.563477	0.256104	0.537842	-78.812820	10.323539	-19.436614
56216		-1.796419	-9.471537	1.847800	-0.000127	-0.024845	0.051828	0.557617	0.253662	0.535156	-78.808647	10.352193	-19.413513
56217		-1.770787	-9.426166	1.857920	-0.003201	-0.024825	0.052357	0.563965	0.257568	0.543945	-78.806529	10.382594	-19.390407
56218		-1.783663	-9.444285	1.908334	-0.007464	-0.020243	0.054025	0.559814	0.255859	0.533691	-78.806964	10.412993	-19.369680
56219		-1.791021	-9.491722	1.830350	-0.009945	-0.019332	0.057797	0.557129	0.257813	0.539551	-78.809136	10.447054	-19.349093
56220		-1.770650	-9.497572	1.901793	-0.020450	-0.022904	0.062020	0.554443	0.253906	0.535889	-78.816548	10.481654	-19.325941
56221		-1.775521	-9.522702	1.831238	-0.031424	-0.026201	0.072703	0.553955	0.255859	0.537842	-78.829976	10.523326	-19.299747
56222		-1.800935	-9.579438	1.779943	-0.044753	-0.033760	0.089238	0.563721	0.260254	0.534424	-78.849583	10.572032	-19.267328
56223		-1.801560	-9.614024	1.728384	-0.058904	-0.055637	0.114033	0.562988	0.255371	0.539795	-78.874765	10.633685	-19.219665
56224		-1.786636	-9.565337	1.792292	-0.078157	-0.066811	0.134003	0.562500	0.258545	0.537354	-78.909018	10.703940	-19.163340
56225		-1.780161	-9.641724	1.770585	-0.102966	-0.070352	0.156510	0.565674	0.252686	0.532959	-78.956888	10.787906	-19.102556
56226		-1.783095	-9.733814	1.656840	-0.124953	-0.080688	0.188206	0.563477	0.249756	0.535645	-79.015177	10.887217	-19.032330
56227		-1.729836	-9.926146	1.500350	-0.158797	-0.112405	0.249143	0.562256	0.242188	0.535400	-79.088328	11.018821	-18.937319
56228		-1.752659	-9.851062	1.630393	-0.217748	-0.136547	0.309676	0.568848	0.248779	0.530762	-79.190769	11.180636	-18.821908
56229		-1.760224	-9.744967	1.734807	-0.280938	-0.135632	0.357259	0.572510	0.231201	0.540039	-79.328567	11.370930	-18.702177
56230		-1.748039	-9.640902	1.823821	-0.368987	-0.108338	0.391064	0.576904	0.228271	0.540039	-79.518539	11.582111	-18.594913
56231		-1.670008	-9.731977	1.756823	-0.467337	-0.055245	0.440256	0.576416	0.233643	0.542969	-79.770096	11.828217	-18.513839
56232		-1.735129	-9.948669	1.464337	-0.558755	-0.014676	0.515867	0.578613	0.225342	0.548828	-80.076790	12.120100	-18.449492
56233		-1.608300	-10.120421	1.282914	-0.632807	0.034280	0.598474	0.578125	0.216797	0.542725	-80.430555	12.465019	-18.406950
56234		-0.966627	-11.003825	1.347566	-0.666792	0.136862	0.748467	0.584229	0.209229	0.557861	-80.813528	12.903284	-18.411629
56235		-0.272312	-12.663556	1.494421	-0.458506	0.325347	1.056859	0.597656	0.202393	0.550049	-81.096741	13.534162	-18.500035
56236		-0.734045	-11.325615	1.257368	-0.152804	0.372952	1.446480	0.598877	0.186279	0.558105	-81.204266	14.388348	-18.583233
56237		-1.811931	-10.765295	1.301520	-0.078611	0.340306	1.667850	0.598389	0.168213	0.566650	-81.261399	15.365853	-18.629020
56238		-1.876016	-10.710806	1.349536	-0.026224	0.306489	1.815091	0.615723	0.150146	0.560547	-81.279981	16.422841	-18.642370
56239		-1.783507	-10.639206	1.447922	0.024542	0.279894	2.007975	0.626465	0.136719	0.570557	-81.260504	17.587570	-18.622633
56240		-1.946746	-10.395694	1.628175	0.057488	0.246979	2.215732	0.634277	0.119629	0.573730	-81.208858	18.866240	-18.563145
56241		-2.069692	-10.463828	1.733633	0.069333	0.221263	2.431060	0.642334	0.100830	0.580322	-81.137062	20.265175	-18.466334
56242		-2.136781	-10.574753	1.879356	0.072453	0.186998	2.654825	0.649170	0.081299	0.577881	-81.044463	21.786923	-18.324248
56243		-2.474674	-10.914115	1.863799	0.098316	0.152123	2.902378	0.660645	0.053467	0.578125	-80.914548	23.445867	-18.132086
56244		-2.727581	-11.065641	1.808494	0.136675	0.112639	3.154047	0.678955	0.023193	0.582520	-80.733243	25.242561	-17.882517
56245		-3.181792	-11.441120	1.795196	0.200972	0.097632	3.404688	0.681641	-0.004395	0.575439	-80.487518	27.178983	-17.586259
56246		-4.062599	-12.117245	1.804524	0.295422	0.103915	3.610190	0.687500	-0.044189	0.574951	-80.161577	29.230423	-17.255060
56247		-5.350918	-13.204121	1.915624	0.425023	0.125458	3.768745	0.708984	-0.079590	0.577393	-79.737860	31.371608	-16.897440
56248		-7.035732	-14.542486	2.399676	0.618845	0.169854	3.822069	0.704834	-0.099121	0.578613	-79.187363	33.544684	-16.532707
56249		-6.962000	-14.483123	2.716557	0.781720	0.256566	3.746228	0.724121	-0.132324	0.589111	-78.551384	35.681308	-16.201198
56250		-5.188582	-12.932422	2.777967	0.857828	0.372096	3.721653	0.720947	-0.171143	0.585693	-77.888230	37.814526	-15.914605
56251		-5.274320	-12.689418	2.829275	0.882788	0.520170	3.740216	0.722412	-0.208740	0.593506	-77.242970	39.973230	-15.692173
56252		-5.112182	-11.871318	3.243666	0.848093	0.661987	3.786027	0.735352	-0.233887	0.596191	-76.649202	42.174258	-15.528303
56253		-4.790588	-11.353192	3.183543	0.691962	0.812982	3.827632	0.734375	-0.272461	0.594971	-76.191761	44.416746	-15.439121
56254		-4.075408	-10.639241	3.025007	0.519205	0.967131	3.811565	0.725586	-0.302246	0.611084	-75.902381	46.671925	-15.450665
56255		-3.506381	-9.821998	2.995915	0.419492	1.021583	3.741071	0.722900	-0.333740	0.619141	-75.705152	48.894352	-15.508667
56256		-1.333516	-8.273534	2.622793	0.358147	1.115076	3.526924	0.714111	-0.368164	0.635254	-75.637606	51.012503	-15.688617
56257		0.650528	-6.477957	2.924616	0.298679	1.115014	2.914697	0.716553	-0.391602	0.642334	-75.725735	52.788958	-16.017889
56258		3.363464	-6.791641	2.515234	0.138441	1.002925	1.890585	0.708740	-0.407959	0.658203	-76.036504	53.981773	-16.503984
56259		-0.367774	-9.627048	2.150529	-0.060823	1.093589	0.764411	0.703857	-0.414551	0.665527	-76.770792	54.554500	-17.365570
56260		-1.814712	-12.641416	2.819800	0.041526	1.042240	-0.314237	0.699951	-0.414795	0.680664	-77.616024	54.513500	-18.432677
56261		1.539394	-9.578591	2.699618	0.120551	1.057696	-1.025667	0.699219	-0.397217	0.694336	-78.536580	54.062679	-19.651510
56262		2.347526	-6.092469	2.524832	0.085358	1.051292	-1.412227	0.696289	-0.382813	0.697998	-79.499248	53.385360	-20.906377
56263		2.278583	-4.276977	2.477882	-0.139623	0.996852	-1.585832	0.690186	-0.369873	0.709473	-80.530129	52.587854	-22.097420
56264		1.871449	-5.022473	2.420040	-0.320391	0.947495	-1.637533	0.685791	-0.358398	0.711426	-81.588226	51.747755	-23.204758
56265		1.018134	-5.869419	2.259469	-0.342866	0.867850	-1.654234	0.683594	-0.332520	0.725098	-82.558503	50.875536	-24.196612
56266		0.253707	-6.445142	2.386963	-0.289328	0.728245	-1.733695	0.690430	-0.316650	0.740479	-83.368667	49.943272	-25.032903
56267		-0.342492	-6.821630	2.483046	-0.217402	0.535073	-1.917309	0.685303	-0.300537	0.743164	-83.985650	48.882760	-25.682078
56268		-0.810993	-7.144047	2.608316	-0.156517	0.313078	-2.156736	0.676025	-0.271729	0.743164	-84.412363	47.674049	-26.133736
56269		-1.239921	-7.382869	2.682100	-0.096397	0.077468	-2.399986	0.675049	-0.246094	0.752197	-84.650949	46.306636	-26.385551
56270		-1.546767	-7.438707	2.666629	-0.029530	-0.149398	-2.605530	0.685303	-0.224609	0.750000	-84.719072	44.814846	-26.457398
56271		-1.962972	-7.580823	2.492715	0.050243	-0.384183	-2.780084	0.681152	-0.198730	0.742432	-84.617146	43.205209	-26.353550
56272		-2.368695	-7.893860	2.253625	0.162969	-0.617082	-2.908444	0.683838	-0.157471	0.738770	-84.346356	41.515083	-26.090428
56273		-2.920935	-8.429958	2.107629	0.299119	-0.828539	-3.018754	0.681641	-0.131592	0.733887	-83.917338	39.742409	-25.696523
56274		-3.774466	-8.768715	1.904460	0.445505	-1.016220	-3.117160	0.675049	-0.089355	0.721191	-83.353351	37.905387	-25.204333
56275		-4.525414	-8.952776	1.615647	0.566472	-1.171437	-3.202185	0.685303	-0.049561	0.706299	-82.691428	35.998802	-24.645169
56276		-5.231853	-9.202178	1.280803	0.663494	-1.291846	-3.250861	0.675293	-0.011230	0.697998	-81.969177	34.056521	-24.049481
56277		-5.691376	-9.502093	0.958889	0.748099	-1.373783	-3.252306	0.675293	0.024658	0.684082	-81.207536	32.093872	-23.441449
56278		-6.007442	-9.636437	0.826531	0.802437	-1.415304	-3.199539	0.664551	0.061768	0.666748	-80.438978	30.157183	-22.844439
56279		-6.169288	-9.783957	0.709282	0.811009	-1.427011	-3.110644	0.658691	0.094482	0.653809	-79.693056	28.256401	-22.270197
56280		-6.467057	-9.765616	0.815671	0.764490	-1.410839	-3.021828	0.643799	0.132324	0.635498	-79.008105	26.407761	-21.732772
56281		-6.741143	-9.627038	1.015781	0.626464	-1.387403	-2.941446	0.637939	0.171387	0.622070	-78.432166	24.595366	-21.230689
56282		-7.004806	-9.732682	1.311468	0.392293	-1.327245	-2.881364	0.633301	0.200439	0.622559	-78.026880	22.826299	-20.782123
56283		-7.467881	-9.842526	1.770255	0.093678	-1.214052	-2.877941	0.630859	0.225830	0.610840	-77.836111	21.064436	-20.417021
56284		-8.154155	-10.230932	2.088346	-0.203958	-1.071471	-2.930194	0.608643	0.256836	0.596191	-77.861064	19.296179	-20.150902
56285		-9.006076	-10.620430	2.239176	-0.387519	-0.922000	-2.994220	0.592041	0.283203	0.587646	-78.028837	17.504580	-19.980751
56286		-9.886055	-10.568563	2.356249	-0.431831	-0.799230	-3.019216	0.570801	0.313477	0.586670	-78.247656	15.719758	-19.880998
56287		-10.604501	-10.306448	2.308629	-0.364939	-0.697321	-2.962694	0.557617	0.339844	0.584229	-78.442572	13.973616	-19.827754
56288		-11.091754	-9.783134	2.333493	-0.236346	-0.630923	-2.794971	0.537842	0.363525	0.584961	-78.568982	12.334566	-19.788584
56289		-11.669670	-9.193798	2.199380	-0.091819	-0.596667	-2.554544	0.517578	0.385498	0.582031	-78.611058	10.830106	-19.738952
56290		-11.926859	-8.349466	2.294247	0.030746	-0.597570	-2.260911	0.501465	0.394287	0.582031	-78.578558	9.494846	-19.655172
56291		-12.148834	-7.647689	2.180130	0.102086	-0.606997	-1.940964	0.481445	0.410156	0.572754	-78.500177	8.334695	-19.530732
56292		-12.019774	-6.932243	2.056149	0.127515	-0.622720	-1.619635	0.465088	0.427979	0.573730	-78.404028	7.356336	-19.362346
56293		-11.567761	-6.398020	1.861423	0.124554	-0.623881	-1.296877	0.468750	0.441895	0.574707	-78.307224	6.556352	-19.157658
56294		-10.969645	-5.860898	1.592797	0.116213	-0.582464	-0.958482	0.458252	0.450195	0.560791	-78.216640	5.953027	-18.938307
56295		-10.478882	-4.623074	2.631280	-0.459914	-0.204288	0.320344	0.461182	0.438477	0.566650	-78.463118	6.110076	-18.782658
56296		-12.160136	1.363230	-0.634601	-0.873890	-0.037806	1.015057	0.461670	0.432373	0.583984	-78.948243	6.678431	-18.643648
56297		-11.892817	-0.896939	0.238315	-1.394757	-0.002201	1.516419	0.486572	0.426514	0.588135	-79.726085	7.534113	-18.477328
56298		-15.938799	-13.181122	0.510566	-1.409782	0.386543	2.532783	0.494385	0.393555	0.605225	-80.528896	9.004113	-18.443411
56299		-16.246240	-12.682942	5.024820	-0.129873	0.357668	2.477473	0.518311	0.383545	0.606689	-80.596904	10.441371	-18.409311
56300		-13.390631	-28.048177	-14.190075	-0.080312	0.943538	-0.341462	0.503174	0.376953	0.615723	-80.745909	10.338324	-18.980931
56301		0.037355	-7.090537	1.601095	0.814196	1.066682	-0.935910	0.501953	0.388184	0.615234	-80.402374	9.913874	-19.679637
56302		-2.581221	-12.217987	2.823447	0.562879	0.041968	-0.041738	0.488037	0.396240	0.605713	-80.084100	9.896738	-19.704823
56303		-0.655073	-11.160450	-0.748265	-0.065133	-0.078041	0.005242	0.507080	0.394287	0.612305	-80.113216	9.896385	-19.656608
56304		-2.426739	-10.607304	0.515190	0.278338	-0.144006	0.130728	0.499512	0.389893	0.614014	-79.936631	9.958208	-19.557945
56305		-1.871950	-9.177481	2.159917	0.220154	-0.097601	0.049284	0.496094	0.385986	0.613525	-79.799697	9.980491	-19.494050
56306		-1.678871	-9.357325	1.854781	0.208691	-0.092245	0.055556	0.502197	0.391846	0.599854	-79.669341	10.004725	-19.432475
56307		-1.981018	-9.352719	1.978895	0.161788	-0.075548	0.037048	0.495361	0.392090	0.602539	-79.568162	10.022113	-19.382380
56308		-1.836567	-9.588041	1.745438	0.126791	-0.034663	-0.000524	0.502441	0.398926	0.599365	-79.491450	10.020529	-19.359587
56309		-1.673383	-9.484666	1.775704	0.103562	-0.014150	-0.011204	0.507080	0.398193	0.604736	-79.430607	10.017044	-19.349701
56310		-1.754604	-9.644833	1.625057	0.082753	0.000219	-0.015690	0.503174	0.397217	0.605713	-79.382881	10.010544	-19.348484
56311		-1.756113	-9.666183	1.623664	0.081735	0.008185	-0.023332	0.501953	0.403076	0.593750	-79.337000	10.002563	-19.352683
56312		-1.734823	-9.560627	1.757570	0.068929	0.012180	-0.025048	0.504883	0.400391	0.605225	-79.298559	9.992064	-19.359323
56313		-1.726500	-9.460745	1.779280	0.061500	0.023814	-0.033994	0.493896	0.389160	0.593994	-79.266031	9.979741	-19.373624
56314		-1.742297	-9.492463	1.804312	0.054014	0.027234	-0.041489	0.497314	0.395752	0.597412	-79.237934	9.961603	-19.390664
56315		-1.718973	-9.514683	1.791530	0.051965	0.031211	-0.045052	0.506592	0.397705	0.596924	-79.211802	9.943854	-19.410407
56316		-1.722043	-9.559288	1.777312	0.046534	0.030264	-0.039578	0.500977	0.402100	0.587646	-79.188245	9.927132	-19.428985
56317		-1.740237	-9.584413	1.720630	0.045289	0.023254	-0.036081	0.494385	0.401855	0.597168	-79.164980	9.913582	-19.443217
56318		-1.700375	-9.549146	1.756324	0.052073	0.017439	-0.032121	0.499512	0.396240	0.596436	-79.136841	9.899689	-19.453665
56319		-1.685441	-9.561438	1.722693	0.052818	0.013145	-0.026815	0.497559	0.400146	0.597412	-79.108099	9.890263	-19.461121
56320		-1.665397	-9.557907	1.779027	0.054013	0.011571	-0.019440	0.499023	0.405762	0.606201	-79.078033	9.882878	-19.466836
56321		-1.698654	-9.515395	1.758920	0.053462	0.006968	-0.012395	0.497070	0.395996	0.607910	-79.048051	9.880887	-19.469187
56322		-1.704461	-9.486103	1.891766	0.047450	0.005141	-0.010169	0.487305	0.398682	0.591797	-79.020940	9.878022	-19.470212
56323		-1.695569	-9.466120	1.845373	0.038712	0.004520	-0.005650	0.505127	0.401855	0.601563	-78.999040	9.879549	-19.470421
56324		-1.687766	-9.475161	1.870074	0.037309	0.002691	-0.004208	0.508301	0.406982	0.595215	-78.977386	9.879770	-19.469388
56325		-1.691753	-9.442519	1.861034	0.028406	0.007245	-0.001756	0.496582	0.400391	0.600830	-78.961580	9.883774	-19.470718
56326		-1.721101	-9.486868	1.853411	0.026422	0.004526	-0.003559	0.498779	0.401611	0.598389	-78.946331	9.884561	-19.470660
56327		-1.683730	-9.524901	1.740873	0.026900	0.003901	-0.000608	0.501953	0.398926	0.606201	-78.931035	9.888836	-19.469951
56328		-1.710077	-9.546747	1.742755	0.035056	0.003270	0.001037	0.500000	0.405029	0.596436	-78.910628	9.892068	-19.468662
56329		-1.742683	-9.510772	1.801341	0.031062	0.000822	0.005953	0.502930	0.405518	0.597168	-78.892528	9.899681	-19.465462
56330		-1.702139	-9.506904	1.848007	0.038739	0.000813	0.004648	0.496826	0.404541	0.597412	-78.869699	9.904671	-19.462363
56331		-1.714232	-9.464407	1.818473	0.040543	-0.002845	0.006752	0.504395	0.394775	0.587158	-78.845792	9.912316	-19.456976
56332		-1.722985	-9.482704	1.872871	0.041837	-0.002537	0.005015	0.502930	0.400146	0.593262	-78.820850	9.917138	-19.451920
56333		-1.723452	-9.481822	1.876904	0.041970	-0.004366	0.006199	0.487793	0.406494	0.597900	-78.795984	9.924290	-19.445722
56334		-1.681053	-9.503546	1.855699	0.040194	-0.004054	0.004984	0.497559	0.400391	0.596191	-78.771834	9.928922	-19.439800
56335		-1.711808	-9.493092	1.846380	0.038313	-0.005260	0.003478	0.503662	0.399902	0.592773	-78.749024	9.934430	-19.433395
56336		-1.718009	-9.434505	1.906065	0.032110	0.001434	0.002738	0.502441	0.405762	0.596191	-78.730088	9.938409	-19.430855
56337		-1.721472	-9.456315	1.900083	0.031900	-0.001600	0.002155	0.504883	0.405762	0.595947	-78.711337	9.943570	-19.426686
56338		-1.721621	-9.455646	1.903272	0.034969	-0.001606	0.001633	0.505615	0.407227	0.598633	-78.690484	9.946586	-19.422535
56339		-1.692352	-9.410090	1.916469	0.033807	-0.003739	0.004556	0.502930	0.403809	0.595215	-78.670377	9.952844	-19.416868
56340		-1.696100	-9.431858	1.910480	0.028040	-0.005862	0.008262	0.498779	0.397949	0.590576	-78.652942	9.959102	-19.409529
56341		-1.701825	-9.427738	1.972455	0.021929	-0.009193	0.010203	0.509766	0.401855	0.597900	-78.638983	9.967903	-19.400101
56342		-1.706835	-9.395177	1.962097	0.014283	-0.012520	0.012405	0.496582	0.410889	0.592529	-78.628688	9.975733	-19.388486
56343		-1.737494	-9.439526	1.953635	0.010292	-0.014952	0.017328	0.501221	0.399658	0.590088	-78.620673	9.987872	-19.374951
56344		-1.712507	-9.416699	1.955585	0.006982	-0.014637	0.016375	0.500000	0.400879	0.595215	-78.614268	9.997689	-19.361670
56345		-1.734106	-9.496663	1.899418	0.006636	-0.015846	0.014609	0.501221	0.403809	0.595459	-78.608298	10.008188	-19.347933
56346		-1.753392	-9.499693	1.848785	0.003911	-0.014631	0.016899	0.502441	0.403564	0.598877	-78.603638	10.018297	-19.334592
56347		-1.713698	-9.496032	1.892683	0.002644	-0.018278	0.019533	0.502686	0.403320	0.592529	-78.599611	10.031277	-19.318899
56348		-1.752896	-9.476508	1.858758	-0.001117	-0.020687	0.016526	0.500732	0.402832	0.590576	-78.597232	10.040489	-19.302145
56349		-1.743604	-9.463236	1.889329	0.002855	-0.015246	0.020113	0.506348	0.406494	0.593750	-78.593368	10.054128	-19.288112
56350		-1.737375	-9.472416	1.911244	0.006047	-0.016750	0.011366	0.508301	0.405029	0.594238	-78.587373	10.060886	-19.274195
56351		-1.748976	-9.485048	1.881761	0.003402	-0.010674	0.013050	0.503662	0.401855	0.585693	-78.583787	10.071066	-19.263581
56352		-1.727035	-9.484904	1.874069	0.000387	-0.017350	0.015368	0.497314	0.397705	0.596191	-78.580890	10.080002	-19.248859
56353		-1.743875	-9.494001	1.903774	0.000760	-0.019485	0.018031	0.505371	0.402588	0.592285	-78.577833	10.091969	-19.232643
56354		-1.740284	-9.497217	1.844708	0.002134	-0.014322	0.015685	0.514404	0.399170	0.602783	-78.574226	10.101425	-19.219609
56355		-1.737245	-9.528936	1.857463	0.003188	-0.013710	0.012470	0.503906	0.399170	0.591309	-78.570465	10.110915	-19.207327
56356		-1.738999	-9.474132	1.854898	0.008005	-0.010691	0.012260	0.503418	0.412109	0.590332	-78.563922	10.118858	-19.196758
56357		-1.751317	-9.515188	1.897450	0.007550	-0.013417	0.010205	0.496338	0.399658	0.590576	-78.557736	10.127096	-19.184903
56358		-1.696233	-9.447707	1.909116	0.011422	-0.009494	0.013499	0.507568	0.397949	0.595703	-78.549327	10.135869	-19.174870
56359		-1.720420	-9.447119	1.918298	0.006951	-0.011304	0.015476	0.507568	0.399170	0.585693	-78.543584	10.147294	-19.163609
56360		-1.717576	-9.478695	1.931586	0.010152	-0.013141	0.016136	0.508057	0.399658	0.594727	-78.535479	10.157130	-19.151189
56361		-1.746083	-9.446021	1.928610	0.008990	-0.015270	0.019063	0.509521	0.403076	0.595215	-78.528087	10.170102	-19.137246
56362		-1.732035	-9.436183	1.900224	0.005920	-0.015259	0.019590	0.505615	0.403320	0.586670	-78.522116	10.181632	-19.123214
56363		-1.760060	-9.457964	1.900438	0.009470	-0.015888	0.022015	0.505371	0.394775	0.590332	-78.514316	10.196179	-19.108571
56364		-1.731377	-9.467092	1.914842	0.012561	-0.019244	0.022385	0.508545	0.397217	0.584961	-78.504073	10.208821	-19.091937
56365		-1.731216	-9.417933	1.993606	0.009515	-0.022575	0.023812	0.510742	0.398438	0.594727	-78.495524	10.223598	-19.073266
56366		-1.759132	-9.411192	1.921979	0.003217	-0.014367	0.031293	0.510498	0.397705	0.583496	-78.490936	10.241794	-19.058375
56367		-1.758969	-9.416549	2.003183	0.001114	-0.018604	0.029216	0.495361	0.400635	0.582764	-78.487473	10.260046	-19.041336
56368		-1.763836	-9.410172	1.922664	-0.004431	-0.020692	0.025003	0.504883	0.401855	0.593262	-78.486745	10.273986	-19.023563
56369		-1.790575	-9.512574	1.856673	-0.007809	-0.025558	0.034076	0.510498	0.394043	0.588379	-78.487568	10.294162	-19.001988
56370		-1.763163	-9.521807	1.869564	-0.005293	-0.030146	0.040614	0.502197	0.399414	0.586914	-78.486031	10.315785	-18.977003
56371		-1.770808	-9.489077	1.857503	-0.002646	-0.036562	0.048339	0.507568	0.397461	0.584961	-78.482459	10.342701	-18.947487
56372		-1.768203	-9.443276	1.875745	-0.002979	-0.038103	0.055985	0.509766	0.399658	0.583252	-78.478436	10.372040	-18.916167
56373		-1.772316	-9.496896	1.879037	-0.012077	-0.036540	0.057868	0.516113	0.400146	0.583740	-78.480041	10.404296	-18.885547
56374		-1.758023	-9.518713	1.861608	-0.010677	-0.053294	0.070028	0.516113	0.401367	0.583740	-78.478527	10.439780	-18.843914
56375		-1.765227	-9.491693	1.929252	-0.026466	-0.056266	0.080048	0.510498	0.395508	0.587158	-78.485826	10.482221	-18.799447
56376		-1.771608	-9.516797	1.858525	-0.043863	-0.064424	0.100359	0.516602	0.391846	0.589600	-78.501463	10.533473	-18.747931
56377		-1.799507	-9.547489	1.875789	-0.050061	-0.076287	0.113244	0.512207	0.396240	0.589355	-78.519400	10.592278	-18.688181
56378		-1.800530	-9.607896	1.755899	-0.066168	-0.087497	0.132720	0.520020	0.393799	0.586914	-78.544593	10.659106	-18.619747
56379		-1.751845	-9.681050	1.779802	-0.073039	-0.102479	0.160898	0.517090	0.390869	0.585938	-78.571762	10.741732	-18.539539
56380		-1.755128	-9.772759	1.670004	-0.091079	-0.117470	0.206835	0.513184	0.396973	0.589111	-78.606225	10.846855	-18.445444
56381		-1.654162	-9.811228	1.712578	-0.125182	-0.128422	0.259583	0.521484	0.385742	0.583496	-78.658042	10.982065	-18.339099
56382		-1.649825	-9.793799	1.780549	-0.189200	-0.124771	0.309529	0.525635	0.385742	0.592285	-78.745258	11.144250	-18.229204
56383		-1.695434	-9.616218	1.988950	-0.285780	-0.116730	0.353488	0.520996	0.375977	0.585938	-78.887807	11.333840	-18.119245
56384		-1.676010	-9.602691	2.029912	-0.412231	-0.077195	0.390375	0.530762	0.378662	0.603027	-79.105868	11.547251	-18.028341
56385		-1.666844	-9.718323	1.913439	-0.539814	-0.027220	0.445688	0.536621	0.369141	0.593506	-79.401771	11.799086	-17.961072
56386		-1.680932	-9.814080	1.740064	-0.675891	0.049593	0.518016	0.540283	0.356689	0.592773	-79.782869	12.098463	-17.931799
56387		-1.531782	-10.013872	1.467076	-0.787590	0.121450	0.605967	0.537109	0.357178	0.599854	-80.235516	12.456316	-17.937314
56388		-1.360390	-10.635445	1.326143	-0.818485	0.221323	0.730975	0.546387	0.341553	0.614990	-80.716257	12.892714	-17.991464
56389		-0.703739	-11.633217	1.355123	-0.657187	0.386879	0.952969	0.548340	0.336670	0.624023	-81.123469	13.470672	-18.124840
56390		-0.979313	-11.535396	1.394546	-0.298456	0.394483	1.265073	0.557861	0.323730	0.629639	-81.321457	14.223917	-18.237994
56391		-1.964933	-10.312617	1.300862	-0.208867	0.372046	1.454117	0.565430	0.306885	0.632080	-81.463196	15.083220	-18.324048
56392		-1.987081	-10.218133	1.353421	-0.185821	0.369477	1.555804	0.577881	0.301025	0.628174	-81.590466	15.998518	-18.402050
56393		-1.837693	-10.380834	1.558472	-0.149387	0.373966	1.713226	0.582520	0.281006	0.634277	-81.696086	17.004406	-18.471453
56394		-2.199784	-10.087193	1.558369	-0.132160	0.370817	1.872395	0.595703	0.266357	0.639160	-81.788570	18.099038	-18.527355
56395		-2.288844	-9.949416	1.675336	-0.143936	0.366487	2.018749	0.603760	0.245850	0.634033	-81.885164	19.277250	-18.570486
56396		-2.346232	-9.871019	1.715347	-0.179430	0.357065	2.180742	0.615723	0.223877	0.653809	-81.996758	20.545511	-18.596569
56397		-2.510027	-10.029401	1.606998	-0.203615	0.349414	2.366267	0.617432	0.205322	0.655518	-82.116874	21.919291	-18.605346
56398		-2.696896	-10.081020	1.524881	-0.221927	0.324413	2.557195	0.636963	0.187012	0.665771	-82.236358	23.398579	-18.585675
56399		-2.812156	-10.237506	1.643093	-0.228968	0.315515	2.750445	0.648438	0.155762	0.662842	-82.352128	24.987699	-18.547439
56400		-3.057668	-10.159799	1.685950	-0.233461	0.312564	2.964342	0.663574	0.123047	0.665527	-82.461699	26.697383	-18.492151
56401		-3.463154	-10.054807	1.932201	-0.249235	0.314124	3.170146	0.665527	0.101807	0.670410	-82.572919	28.524777	-18.423548
56402		-4.048947	-10.560788	1.977614	-0.251609	0.326440	3.347330	0.684814	0.071533	0.679932	-82.681098	30.453281	-18.350637
56403		-4.844759	-10.306191	1.824697	-0.247133	0.352035	3.468256	0.688477	0.038574	0.677246	-82.789881	32.452906	-18.287462
56404		-6.090810	-11.329907	1.732415	-0.223832	0.351964	3.559542	0.699463	-0.001709	0.683838	-82.880262	34.504091	-18.218985
56405		-7.762107	-13.095552	1.853096	-0.115585	0.358184	3.549314	0.710938	-0.035400	0.691162	-82.910479	36.550254	-18.156850
56406		-7.940547	-13.720291	2.101780	0.091490	0.401770	3.464490	0.714600	-0.066650	0.694336	-82.842138	38.550978	-18.130902
56407		-6.254255	-11.723162	2.510079	0.236538	0.484998	3.458092	0.724609	-0.104736	0.696289	-82.726575	40.554140	-18.162171
56408		-6.144799	-12.676466	2.663450	0.315012	0.616224	3.412075	0.720459	-0.140137	0.700439	-82.633058	42.540651	-18.293461
56409		-6.379622	-11.721581	2.761281	0.463098	0.811693	3.389911	0.725342	-0.166016	0.710205	-82.565548	44.528925	-18.580696
56410		-6.253644	-11.496304	2.769945	0.557278	0.996965	3.357531	0.726807	-0.199707	0.723877	-82.566604	46.512874	-19.029797
56411		-5.322561	-10.868492	2.674759	0.656900	1.186051	3.238722	0.720215	-0.220703	0.730713	-82.661765	48.442410	-19.669711
56412		-4.045548	-9.724327	2.542070	0.764362	1.401427	3.169486	0.714111	-0.254395	0.747803	-82.883143	50.347513	-20.538204
56413		-3.605351	-9.111191	2.310448	0.926644	1.561873	3.118596	0.714844	-0.275635	0.762695	-83.186331	52.231204	-21.607345
56414		-2.574008	-7.804726	1.916912	1.113881	1.748495	3.053415	0.700195	-0.311768	0.770020	-83.604031	54.086917	-22.926742
56415		-0.481972	-6.878852	1.366088	1.275411	1.926712	2.666558	0.691162	-0.318848	0.794189	-84.199888	55.724553	-24.548372
56416		1.734335	-7.426977	0.448624	1.472650	2.121908	1.886566	0.671143	-0.333984	0.821289	-85.015904	56.917668	-26.542941
56417		2.470205	-7.969309	-0.562894	1.627295	2.492853	0.961202	0.653320	-0.327637	0.844238	-86.226944	57.576535	-29.091920
56418		-4.044700	-11.550210	0.065275	1.850564	2.828935	0.054236	0.632813	-0.318604	0.863037	-87.714125	57.695953	-32.107874
56419		-3.292262	-9.451450	1.444914	1.918079	2.838904	-0.784128	0.614502	-0.286621	0.888916	-89.180763	57.290795	-35.150576
56420		-2.145942	-6.232198	2.077375	1.677590	2.715029	-1.352669	0.601807	-0.262451	0.918945	-90.604938	56.521298	-37.997799
56421		-2.213503	-4.556241	2.050287	1.222140	2.408536	-1.692956	0.582031	-0.250732	0.928467	-91.914566	55.520737	-40.422315
56422		-2.708343	-4.432918	2.114833	0.739330	2.000193	-1.832226	0.559326	-0.225830	0.947510	-93.056151	54.425037	-42.333701
56423		-3.105280	-5.084284	2.285558	0.394642	1.522073	-1.852709	0.545898	-0.210205	0.971436	-93.927955	53.312010	-43.694307
56424		-3.277765	-5.684230	2.308961	0.203878	1.038390	-1.846402	0.529053	-0.182129	0.969238	-94.486636	52.216275	-44.542843
56425		-3.252561	-6.100082	2.213133	0.147932	0.571511	-1.897276	0.537354	-0.172607	0.972656	-94.698527	51.106088	-44.922725
56426		-3.321598	-6.734685	1.976016	0.190011	0.143363	-1.979501	0.521973	-0.157715	0.973633	-94.574889	49.972006	-44.903729
56427		-3.453052	-7.310712	1.719472	0.317746	-0.235528	-2.066899	0.524658	-0.130127	0.981689	-94.125116	48.800746	-44.553120
56428		-3.497644	-7.693629	1.494308	0.474447	-0.563011	-2.145462	0.525146	-0.110840	0.977783	-93.400340	47.598274	-43.945717
56429		-3.526880	-7.520641	1.363253	0.593017	-0.822478	-2.236662	0.520508	-0.081055	0.972900	-92.480041	46.341539	-43.153947
56430		-3.341099	-7.211492	1.139110	0.633661	-1.043030	-2.354035	0.520508	-0.060791	0.966553	-91.455350	45.016965	-42.229398
56431		-3.268991	-7.214923	0.929697	0.610521	-1.195465	-2.464256	0.521729	-0.039307	0.950684	-90.408713	43.614860	-41.234596
56432		-3.247005	-7.468576	0.645660	0.567979	-1.300717	-2.547288	0.520752	-0.013672	0.945801	-89.390966	42.156844	-40.217564
56433		-3.341949	-7.907464	0.497375	0.544436	-1.344468	-2.611437	0.528809	0.017578	0.928711	-88.419902	40.644232	-39.223705
56434		-3.536986	-8.332382	0.257082	0.551078	-1.337286	-2.658194	0.529785	0.046143	0.915039	-87.507437	39.097629	-38.293160
56435		-3.831500	-8.737388	0.105470	0.596259	-1.292657	-2.704571	0.515869	0.074219	0.909912	-86.639252	37.509928	-37.446573
56436		-4.180670	-8.970621	0.050031	0.656795	-1.238465	-2.751704	0.520996	0.096680	0.902832	-85.810368	35.892646	-36.689614
56437		-4.506523	-9.072348	-0.019461	0.726605	-1.192255	-2.786876	0.513916	0.129883	0.891357	-85.001551	34.243695	-36.009453
56438		-4.936920	-8.939344	0.113199	0.759594	-1.180349	-2.808697	0.502686	0.161621	0.875488	-84.219904	32.580586	-35.380641
56439		-5.228669	-8.712739	0.305489	0.719414	-1.215980	-2.796726	0.498047	0.187744	0.858887	-83.481550	30.909972	-34.763763
56440		-5.347186	-8.411810	0.643021	0.591396	-1.297635	-2.752790	0.486816	0.215332	0.862793	-82.822236	29.257828	-34.124767
56441		-5.435169	-8.223020	0.984837	0.391552	-1.408202	-2.687016	0.477051	0.244385	0.845703	-82.269441	27.623759	-33.438179
56442		-5.565881	-8.463163	1.290073	0.173201	-1.524601	-2.622702	0.476074	0.269043	0.826416	-81.836261	26.017145	-32.698370
56443		-5.838513	-9.124775	1.433701	0.014159	-1.638626	-2.572347	0.458252	0.280762	0.831055	-81.488386	24.419912	-31.904114
56444		-6.231015	-9.862418	1.427476	-0.061205	-1.735790	-2.537571	0.453125	0.316162	0.819336	-81.187745	22.835176	-31.066828
56445		-6.590384	-10.440090	1.389158	-0.066789	-1.815103	-2.530503	0.447998	0.328857	0.802002	-80.899021	21.238358	-30.198595
56446		-6.861024	-10.278034	1.576853	-0.059361	-1.872351	-2.539968	0.444092	0.346191	0.801514	-80.624345	19.632065	-29.314858
56447		-7.070750	-9.939936	1.729427	-0.108475	-1.895226	-2.552065	0.424805	0.369873	0.792480	-80.401463	18.008351	-28.434641
56448		-7.406139	-9.711063	1.890899	-0.197634	-1.890512	-2.538356	0.415039	0.382324	0.778564	-80.258736	16.395030	-27.569533
56449		-7.723212	-9.440713	2.086746	-0.287104	-1.887141	-2.472730	0.396729	0.410889	0.766113	-80.191020	14.813106	-26.709767
56450		-8.209742	-9.319624	2.208886	-0.353553	-1.877188	-2.360353	0.395508	0.415039	0.770020	-80.185108	13.299542	-25.851808
56451		-8.654558	-9.060142	2.271785	-0.404250	-1.866909	-2.219463	0.379639	0.444580	0.760986	-80.228211	11.862841	-24.990336
56452		-9.525144	-9.102577	2.376371	-0.435444	-1.839442	-2.069148	0.366699	0.440674	0.745850	-80.311161	10.518570	-24.132717
56453		-10.103549	-8.921394	2.544200	-0.408036	-1.791113	-1.935914	0.374756	0.452881	0.751465	-80.399671	9.252186	-23.291345
56454		-10.628007	-8.634618	2.571317	-0.360852	-1.698511	-1.780753	0.365479	0.468262	0.740723	-80.485386	8.086817	-22.488999
56455		-10.702976	-8.433371	2.420422	-0.258557	-1.566858	-1.599218	0.341309	0.473633	0.740723	-80.534794	7.034998	-21.745176
56456		-10.721428	-8.174226	2.171679	-0.076916	-1.392814	-1.379546	0.347412	0.487061	0.724609	-80.502642	6.126280	-21.080958
56457		-10.564290	-7.744169	1.991782	0.149099	-1.183778	-1.134489	0.345947	0.488281	0.725586	-80.359539	5.373442	-20.514370
56458		-10.275666	-7.132518	1.745064	0.384486	-0.945885	-0.864600	0.333252	0.495117	0.721680	-80.098839	4.795628	-20.059621
56459		-9.093481	-5.616855	0.709090	0.403594	-0.695759	-0.382361	0.334717	0.501221	0.715332	-79.837551	4.512269	-19.701055
56460		-12.726670	-3.289557	2.850906	0.409520	-0.257355	1.044600	0.345459	0.500244	0.707520	-79.581426	5.077142	-19.445199
56461		-13.090696	1.896779	1.075243	-0.579270	-0.318590	1.518605	0.362793	0.484131	0.716309	-79.879819	5.903585	-19.105865
56462		-13.392794	-3.447892	0.441490	-1.283748	-0.654855	2.267709	0.386719	0.468262	0.722900	-80.547522	7.122563	-18.508491
56463		-1.529172	-9.542768	1.490679	-1.148972	-0.817697	2.725058	0.408447	0.448975	0.727295	-81.106138	8.593410	-17.787244
56464		-7.511096	-17.739946	2.868379	-0.479788	-0.443291	2.494333	0.434570	0.425293	0.731934	-81.303744	9.969330	-17.308571
56465		-10.257874	-31.681420	-19.392465	-0.763280	0.579046	0.648690	0.436279	0.420898	0.735352	-81.788497	10.390134	-17.583323
56466		0.101100	-15.757377	-8.991871	1.064231	0.741020	-0.469900	0.423096	0.423584	0.734375	-81.261549	10.188835	-18.047514
56467		-2.593822	-6.332702	8.198574	1.419609	0.082583	0.205489	0.424072	0.425293	0.723145	-80.453307	10.317058	-18.073093
56468		-2.270430	-8.217094	4.903204	0.003518	-0.331868	0.276310	0.428467	0.435547	0.727539	-80.411487	10.443932	-17.852738
56469		-1.306740	-11.943918	-2.222290	0.104768	-0.419069	0.356165	0.439941	0.433594	0.726318	-80.300628	10.609412	-17.574200
56470		-2.790280	-9.797691	1.845594	0.277835	-0.403088	0.336206	0.444824	0.420654	0.716553	-80.091652	10.762260	-17.306231
56471		-1.808945	-9.504454	1.692114	0.108097	-0.372357	0.280524	0.442139	0.424316	0.709717	-79.983891	10.888157	-17.061004
56472		-2.005423	-9.341071	1.853239	0.077003	-0.268856	0.242508	0.458008	0.417236	0.706055	-79.905079	11.000415	-16.878800
56473		-2.120149	-9.768218	1.224277	0.088298	-0.190753	0.181400	0.452393	0.413818	0.706543	-79.829551	11.087990	-16.747555
56474		-2.035616	-9.193782	2.063895	0.120530	-0.116982	0.113770	0.453613	0.418945	0.711914	-79.744581	11.142592	-16.665535
56475		-1.995171	-8.977386	2.250085	0.078678	-0.055285	0.052550	0.447754	0.417725	0.707275	-79.691916	11.171054	-16.625287
56476		-1.971595	-8.977544	2.188193	0.059260	-0.001988	0.002740	0.445068	0.423096	0.701416	-79.657001	11.174722	-16.620837
56477		-1.959233	-9.123903	2.028272	0.049814	0.034740	-0.031930	0.457275	0.414307	0.703857	-79.632535	11.164794	-16.641129
56478		-1.937850	-9.495022	1.695499	0.049549	0.043805	-0.044197	0.456787	0.422852	0.702393	-79.609229	11.146732	-16.667919
56479		-1.967613	-9.776647	1.428448	0.063326	0.021487	-0.032598	0.450195	0.415039	0.707031	-79.575541	11.135070	-16.680676
56480		-2.020967	-9.898213	1.367091	0.082759	-0.004197	-0.006891	0.451904	0.418945	0.704590	-79.527115	11.133073	-16.675970
56481		-1.993738	-9.820554	1.375690	0.109290	-0.044111	0.009615	0.450928	0.431152	0.701904	-79.458992	11.138352	-16.646599
56482		-1.969463	-9.580399	1.640370	0.124087	-0.059042	0.016303	0.447754	0.424561	0.704834	-79.380323	11.143638	-16.607928
56483		-1.960899	-9.373676	1.865818	0.122905	-0.055881	0.009270	0.453125	0.418701	0.691895	-79.303119	11.147393	-16.571835
56484		-1.935751	-9.292846	1.935865	0.114448	-0.039395	-0.006222	0.452393	0.426270	0.699951	-79.232620	11.141995	-16.546871
56485		-1.962697	-9.256053	2.003311	0.093448	-0.017132	-0.030826	0.450928	0.426514	0.702637	-79.177422	11.127253	-16.537384
56486		-1.917431	-9.278093	1.984829	0.090466	-0.004936	-0.049877	0.452637	0.420898	0.696045	-79.125414	11.100955	-16.536993
56487		-1.928477	-9.311796	1.953439	0.079453	0.007537	-0.061005	0.454346	0.431396	0.701660	-79.081585	11.071885	-16.545008
56488		-1.912036	-9.378706	1.923584	0.071494	0.013247	-0.070988	0.451660	0.428467	0.695801	-79.042902	11.035687	-16.557419
56489		-1.863197	-9.483624	1.776363	0.067016	0.014797	-0.069810	0.458496	0.437256	0.694580	-79.007165	11.002461	-16.570612
56490		-1.895851	-9.517720	1.752224	0.066252	0.010458	-0.064239	0.453613	0.428711	0.686523	-78.971032	10.969770	-16.580717
56491		-1.877945	-9.505590	1.788003	0.060113	0.010503	-0.063071	0.450195	0.416260	0.701416	-78.938641	10.939866	-16.590739
56492		-1.872101	-9.505728	1.793392	0.058442	0.015714	-0.064821	0.451660	0.434814	0.690918	-78.907561	10.907438	-16.603956
56493		-1.867472	-9.585372	1.732205	0.058433	0.019068	-0.065692	0.450439	0.432861	0.691895	-78.877117	10.877006	-16.619211
56494		-1.823422	-9.551312	1.767342	0.052847	0.019887	-0.053351	0.450195	0.431885	0.692383	-78.849442	10.851501	-16.633555
56495		-1.836536	-9.503641	1.858808	0.049419	0.016779	-0.045426	0.451416	0.431885	0.692627	-78.823491	10.832208	-16.645243
56496		-1.828620	-9.426918	1.868949	0.031644	0.019718	-0.047811	0.447021	0.439209	0.694824	-78.807822	10.809810	-16.658884
56497		-1.863120	-9.461594	1.840903	0.022305	0.028347	-0.048993	0.450439	0.439453	0.695068	-78.798715	10.789793	-16.677605
56498		-1.862921	-9.484449	1.833080	0.017565	0.033579	-0.050171	0.449707	0.439453	0.698975	-78.792637	10.767617	-16.699449
56499		-1.846768	-9.472790	1.863609	0.009366	0.040995	-0.053414	0.445557	0.432861	0.699463	-78.792379	10.746518	-16.725910
56500		-1.847688	-9.520930	1.785910	0.011928	0.043050	-0.048698	0.449707	0.435791	0.683350	-78.790492	10.726226	-16.753004
56501		-1.836712	-9.556624	1.738453	0.014484	0.036951	-0.050462	0.447998	0.440674	0.689453	-78.786797	10.706327	-16.776815
56502		-1.798757	-9.544967	1.760613	0.020812	0.027863	-0.031345	0.448242	0.430908	0.692627	-78.777825	10.694099	-16.793255
56503		-1.814502	-9.497389	1.848723	0.015740	0.019896	-0.022554	0.446045	0.428711	0.693604	-78.771017	10.687974	-16.804150
56504		-1.798418	-9.487889	1.819816	0.007855	0.014986	-0.012593	0.448242	0.432861	0.695557	-78.767705	10.684851	-16.811097
56505		-1.784666	-9.450462	1.918801	0.002997	0.015336	-0.013198	0.450439	0.436035	0.690918	-78.767520	10.683464	-16.818323
56506		-1.810687	-9.418190	1.915637	-0.003018	0.020250	-0.012626	0.445557	0.431641	0.690674	-78.770996	10.680910	-16.828285
56507		-1.852292	-9.420764	1.872998	-0.003674	0.022733	-0.016741	0.450684	0.437744	0.697021	-78.775486	10.678343	-16.840142
56508		-1.820391	-9.431271	1.884453	0.002694	0.029090	-0.018177	0.446045	0.430908	0.692627	-78.776742	10.673654	-16.855789
56509		-1.789351	-9.466814	1.827626	0.009060	0.035448	-0.019612	0.441650	0.433105	0.695557	-78.775340	10.670882	-16.875243
56510		-1.837632	-9.434246	1.833968	0.013126	0.039420	-0.024293	0.447998	0.433105	0.701904	-78.771838	10.663909	-16.897491
56511		-1.820455	-9.454070	1.876567	0.020809	0.037456	-0.016618	0.436035	0.441406	0.697510	-78.763855	10.663036	-16.917754
56512		-1.811770	-9.409345	1.896218	0.023107	0.035041	-0.020725	0.442627	0.436279	0.697998	-78.754094	10.657585	-16.937094
56513		-1.825463	-9.418879	1.927284	0.020668	0.039291	-0.017792	0.442627	0.435791	0.696045	-78.746407	10.656252	-16.958540
56514		-1.814354	-9.456709	1.821031	0.021073	0.033772	-0.014267	0.438477	0.435059	0.698975	-78.737540	10.654293	-16.976421
56515		-1.809095	-9.463497	1.902905	0.019188	0.027311	-0.005757	0.448975	0.433594	0.693604	-78.729181	10.658378	-16.989647
56516		-1.817529	-9.398842	1.880649	0.018048	0.025160	-0.002824	0.439941	0.442627	0.696289	-78.720897	10.661890	-17.001300
56517		-1.817491	-9.453133	1.884146	0.009109	0.024891	0.000360	0.449219	0.436523	0.691162	-78.717928	10.669133	-17.012445
56518		-1.814294	-9.430573	1.893805	0.010924	0.017849	0.003306	0.444580	0.438477	0.692871	-78.712823	10.675272	-17.019218
56519		-1.822886	-9.474944	1.876129	0.006095	0.012928	0.012683	0.444824	0.436279	0.693115	-78.710054	10.688087	-17.022116
56520		-1.840748	-9.534605	1.768764	0.005519	-0.003288	0.022078	0.437500	0.433105	0.699463	-78.705408	10.702403	-17.014659
56521		-1.831681	-9.521535	1.799126	-0.001827	-0.018900	0.037609	0.446289	0.437500	0.704102	-78.703272	10.725641	-16.996510
56522		-1.857483	-9.495280	1.876631	-0.008048	-0.029007	0.049328	0.450928	0.434082	0.693115	-78.703072	10.752380	-16.971230
56523		-1.827385	-9.482346	1.897300	-0.014931	-0.033279	0.056050	0.446533	0.438477	0.697266	-78.706499	10.784357	-16.942748
56524		-1.843467	-9.414373	1.932158	-0.024008	-0.031705	0.058062	0.447021	0.432617	0.692627	-78.714942	10.815704	-16.914926
56525		-1.848281	-9.413882	1.929948	-0.033617	-0.022773	0.055374	0.446777	0.438232	0.698975	-78.730183	10.848476	-16.892534
56526		-1.868594	-9.448335	1.887801	-0.040394	-0.023611	0.053282	0.446533	0.433350	0.691895	-78.748961	10.878057	-16.869898
56527		-1.850611	-9.448504	1.875105	-0.050746	-0.022343	0.057056	0.451416	0.426270	0.688721	-78.773999	10.911828	-16.847577
56528		-1.890056	-9.514954	1.852130	-0.050500	-0.019312	0.057651	0.445801	0.437744	0.696045	-78.798919	10.944361	-16.826925
56529		-1.876603	-9.482902	1.827119	-0.051524	-0.019952	0.060880	0.445801	0.425293	0.701416	-78.824558	10.980556	-16.805563
56530		-1.882240	-9.482672	1.822508	-0.053825	-0.020905	0.065868	0.447998	0.432129	0.692139	-78.851011	11.017550	-16.783096
56531		-1.903074	-9.437459	1.844915	-0.055109	-0.021223	0.067628	0.450684	0.427979	0.697021	-78.878399	11.057408	-16.760273
56532		-1.897210	-9.424900	1.870079	-0.054990	-0.016353	0.067053	0.453613	0.433594	0.687988	-78.905971	11.095592	-16.740309
56533		-1.929912	-9.446545	1.864767	-0.054999	-0.006281	0.064436	0.447510	0.429932	0.701172	-78.934987	11.135313	-16.726438
56534		-1.924608	-9.404532	1.818327	-0.056421	-0.002817	0.055915	0.454346	0.424805	0.704590	-78.965102	11.168739	-16.715514
56535		-1.906123	-9.434598	1.875375	-0.057829	0.002068	0.055632	0.460693	0.421875	0.698975	-78.996848	11.204432	-16.707450
56536		-1.912442	-9.459502	1.800639	-0.062555	0.014029	0.052715	0.449951	0.422119	0.701172	-79.032420	11.237910	-16.706577
56537		-1.924447	-9.424771	1.842699	-0.059621	0.015840	0.050972	0.449219	0.425049	0.705811	-79.066832	11.272478	-16.706968
56538		-1.934784	-9.471767	1.758815	-0.055927	0.009944	0.055376	0.450439	0.421143	0.695801	-79.098097	11.307011	-16.703498
56539		-1.933810	-9.506321	1.705497	-0.051346	-0.002145	0.066224	0.455322	0.432861	0.705078	-79.125417	11.348205	-16.691922
56540		-1.967476	-9.527484	1.700569	-0.045996	-0.011864	0.080613	0.456787	0.421387	0.701172	-79.147978	11.394587	-16.673188
56541		-1.940450	-9.515027	1.717692	-0.047053	-0.022602	0.086440	0.454102	0.424805	0.700928	-79.170071	11.444952	-16.647677
56542		-1.967614	-9.545852	1.734465	-0.037869	-0.028032	0.094687	0.463623	0.416748	0.698730	-79.185795	11.497528	-16.618140
56543		-1.971713	-9.467861	1.738719	-0.036249	-0.036632	0.097298	0.455322	0.421875	0.698730	-79.199814	11.552501	-16.583402
56544		-2.016292	-9.396517	1.841716	-0.027932	-0.032509	0.098237	0.464355	0.418457	0.704102	-79.209198	11.606608	-16.550918
56545		-2.020349	-9.372953	1.849073	-0.026258	-0.025686	0.088285	0.460449	0.419189	0.694580	-79.218895	11.657687	-16.523462
56546		-1.993004	-9.360346	1.868212	-0.025960	-0.013961	0.078061	0.456055	0.417480	0.691650	-79.229699	11.702436	-16.503853
56547		-1.969299	-9.370242	1.877216	-0.037520	0.002463	0.071061	0.455811	0.424072	0.701904	-79.249469	11.746836	-16.494474
56548		-1.996633	-9.425916	1.824152	-0.052852	0.006011	0.073090	0.460449	0.415039	0.697021	-79.278110	11.790932	-16.486916
56549		-1.957384	-9.538029	1.744545	-0.075198	0.011890	0.088054	0.457275	0.413330	0.697754	-79.320184	11.845900	-16.481152
56550		-1.975714	-9.717420	1.592879	-0.094784	-0.009329	0.117263	0.458740	0.411621	0.693359	-79.370047	11.913254	-16.460047
56551		-1.974563	-9.761285	1.555228	-0.118877	-0.030981	0.156744	0.468750	0.414795	0.701904	-79.430518	12.002380	-16.422300
56552		-1.942723	-9.793624	1.536011	-0.155032	-0.036147	0.203667	0.470703	0.412354	0.711914	-79.509705	12.115643	-16.376632
56553		-1.971368	-9.892558	1.442629	-0.199512	-0.050672	0.251680	0.469971	0.403320	0.707031	-79.611775	12.256298	-16.317675
56554		-1.906784	-9.732829	1.639774	-0.260645	-0.046637	0.298958	0.464600	0.406982	0.704590	-79.747902	12.422361	-16.256318
56555		-1.798817	-9.552986	1.881076	-0.356360	-0.003853	0.345442	0.468262	0.395752	0.707764	-79.943421	12.620879	-16.215347
56556		-1.800587	-9.622606	1.735849	-0.445159	0.045792	0.401865	0.474121	0.398438	0.719482	-80.194579	12.854557	-16.198108
56557		-1.639427	-10.135774	1.461484	-0.452017	0.097042	0.470717	0.473633	0.387939	0.711914	-80.455292	13.133825	-16.204856
56558		-1.530025	-10.481606	1.142252	-0.354936	0.188798	0.596930	0.486572	0.390381	0.717529	-80.669844	13.491326	-16.253874
56559		-1.985491	-10.639556	1.423519	-0.188095	0.178621	0.714135	0.481934	0.380615	0.728027	-80.785717	13.915624	-16.287017
56560		-2.092257	-9.938144	1.178376	-0.040384	0.155480	0.793799	0.483154	0.372314	0.715576	-80.811855	14.381220	-16.299696
56561		-2.174402	-9.939827	1.453747	0.011024	0.126135	0.865648	0.500000	0.367188	0.726807	-80.803015	14.886303	-16.288585
56562		-2.125289	-9.884427	1.540742	0.046331	0.121100	0.946268	0.506104	0.353027	0.721191	-80.770616	15.434978	-16.266584
56563		-2.167995	-9.920205	1.637861	0.075380	0.130385	1.041141	0.509766	0.350342	0.738281	-80.720657	16.039623	-16.240559
56564		-2.258597	-9.886455	1.554391	0.095456	0.141106	1.131730	0.513184	0.339600	0.730713	-80.657626	16.694978	-16.211324
56565		-2.496295	-9.680231	1.610665	0.100787	0.144573	1.216938	0.516846	0.336670	0.729980	-80.589520	17.400196	-16.175014
56566		-2.622340	-9.669041	1.548029	0.119747	0.142750	1.284356	0.527344	0.332275	0.730225	-80.506998	18.141896	-16.129762
56567		-2.742591	-9.644315	1.517337	0.130084	0.129927	1.366782	0.537109	0.321289	0.730957	-80.412890	18.930230	-16.067304
56568		-2.865857	-9.560299	1.546790	0.141482	0.111763	1.443185	0.546875	0.303467	0.721924	-80.304239	19.758527	-15.984327
56569		-2.936508	-9.570070	1.563459	0.149730	0.098401	1.519928	0.554199	0.292725	0.726318	-80.183846	20.629991	-15.883276
56570		-3.025028	-9.563830	1.620431	0.158835	0.085820	1.605033	0.554688	0.284180	0.725830	-80.049411	21.546755	-15.762861
56571		-3.103692	-9.556702	1.729717	0.163090	0.068420	1.698123	0.578125	0.263428	0.729004	-79.902183	22.515244	-15.618752
56572		-3.280198	-9.595978	1.776316	0.168169	0.055475	1.797423	0.585693	0.254883	0.732666	-79.740415	23.536840	-15.451784
56573		-3.413167	-9.541324	1.773980	0.166525	0.032972	1.899155	0.600830	0.242432	0.728271	-79.564966	24.614138	-15.254966
56574		-3.576005	-9.564368	1.844101	0.168402	0.022496	2.007126	0.600342	0.219971	0.728271	-79.374116	25.749446	-15.033444
56575		-3.618814	-9.832036	1.884225	0.180813	0.018879	2.130467	0.612549	0.206299	0.725342	-79.162006	26.954130	-14.788469
56576		-3.866318	-10.059280	1.785246	0.212187	0.027824	2.264812	0.629395	0.191406	0.724609	-78.917996	28.233436	-14.524384
56577		-4.111463	-10.405912	1.809166	0.259926	0.040085	2.415080	0.642578	0.165527	0.724365	-78.631356	29.598372	-14.239138
56578		-4.593656	-10.558125	2.009196	0.332629	0.057898	2.582711	0.653564	0.139160	0.728516	-78.284697	31.057142	-13.930284
56579		-5.149641	-11.345745	2.122819	0.390984	0.089834	2.727045	0.664551	0.126709	0.730225	-77.890177	32.599608	-13.606609
56580		-6.038784	-12.003796	2.458604	0.509100	0.142235	2.826670	0.680420	0.099854	0.719238	-77.420527	34.201377	-13.283585
56581		-6.720727	-12.499897	2.757163	0.635536	0.208650	2.862281	0.679688	0.076660	0.730957	-76.880715	35.829645	-12.977105
56582		-5.945324	-11.447310	3.040168	0.721852	0.312087	2.884455	0.701904	0.052979	0.731934	-76.309005	37.480914	-12.712491
56583		-5.511292	-11.590695	3.235385	0.723012	0.442687	2.929882	0.702148	0.034424	0.727295	-75.767020	39.173725	-12.506282
56584		-5.830222	-11.841590	3.520180	0.788312	0.585858	2.975947	0.709473	0.009766	0.738281	-75.226838	40.910652	-12.368925
56585		-6.143271	-11.868743	3.808280	0.884105	0.772886	2.978864	0.709229	-0.020020	0.743652	-74.704305	42.675972	-12.344794
56586		-5.771480	-10.954666	3.748615	0.933896	0.953820	2.998261	0.714111	-0.044922	0.749512	-74.229348	44.479502	-12.432214
56587		-5.540321	-10.082827	3.531045	0.877189	1.123891	3.015768	0.722900	-0.056152	0.750488	-73.870115	46.319521	-12.633481
56588		-5.160414	-9.237725	3.298681	0.729133	1.270729	2.991218	0.721680	-0.088135	0.767334	-73.687096	48.170538	-12.953323
56589		-4.632233	-8.254757	3.008329	0.535880	1.407365	2.974272	0.718018	-0.109863	0.783936	-73.718009	50.033773	-13.400376
56590		-4.547687	-7.139429	3.021804	0.339559	1.466716	2.970320	0.716553	-0.139160	0.791992	-73.930187	51.904415	-13.924049
56591		-3.433349	-5.476164	3.173805	0.062992	1.515758	2.882066	0.715576	-0.164551	0.814209	-74.397407	53.731031	-14.555778
56592		-1.489130	-5.089847	3.127141	-0.286512	1.537208	2.569493	0.710449	-0.198242	0.828369	-75.209054	55.384744	-15.350552
56593		1.681589	-6.732850	2.712109	-0.562799	1.467744	1.805748	0.694824	-0.202881	0.842529	-76.358247	56.594969	-16.348032
56594		-1.449500	-8.915585	1.339461	-0.718403	1.549621	0.794857	0.687012	-0.212891	0.861816	-77.938345	57.238708	-17.742669
56595		-2.512116	-13.442069	1.986632	-0.442082	1.477291	-0.193154	0.680908	-0.220947	0.877686	-79.511589	57.295875	-19.312058
